"Experimental_Loop_PLUS_Pause","LIMITE_MINIMO_MS","PERSISTENT","TEMPORARY","acc","accuracy","average_response_time","avg_rt","background","bidi","canvas_backend","clock_backend","closed","color_backend","compensation","condition","coordinates","correct","correct_Trial_sequence_Task_mouse_response","correct_Trial_sequence_training_mouse_response","correct_response","count_Block_sequence","count_Block_sequence_1","count_End_of_Task","count_End_of_Training","count_Instructions","count_Instructions_Task_Condition","count_Instructions_Training_Condition","count_Pause_1","count_Task_Loop","count_Task_Loop_with_Pause","count_Task_PLUS_Pause_Sequence","count_Training_Loop","count_Trial_Loop_Task_Phase","count_Trial_Loop_Training_Condition_Phase","count_Trial_sequence_Task","count_Trial_sequence_Task_logger","count_Trial_sequence_Task_mouse_response","count_Trial_sequence_Task_sketchpad","count_Trial_sequence_Training","count_Trial_sequence_training_logger","count_Trial_sequence_training_mouse_response","count_Trial_sequence_training_sketchpad","count_artefact_filter_Task_inline_javascript","count_artefact_filter_training_inline_javascript","count_jitter_task_js","count_jitter_training_js","count_mask_task_sketchpad","count_mask_training_sketchpad","count_new_inline_javascript","count_osweb","count_task","credentialless","crossOriginIsolated","cursor_roi","cursor_x","cursor_y","datetime","description","devicePixelRatio","disable_garbage_collection","experiment_path","font_bold","font_family","font_italic","font_size","font_underline","foreground","form_clicks","fullscreen","height","innerHeight","innerWidth","isSecureContext","is_artifact","jatos_uuid","jitter","keyboard_backend","length","mouse_backend","name","number","opensesame_codename","opensesame_version","origin","originAgentCluster","outerHeight","outerWidth","pageXOffset","pageYOffset","penwidth","practice","repeat_cycle","response","response_Trial_sequence_Task_mouse_response","response_Trial_sequence_training_mouse_response","response_time","response_time_Trial_sequence_Task_mouse_response","response_time_Trial_sequence_training_mouse_response","round_decimals","sampler_backend","screenLeft","screenTop","screenX","screenY","scrollX","scrollY","sessionid","sound_buf_size","sound_channels","sound_freq","sound_sample_size","start","status","subject_nr","subject_parity","time_Instructions_Task_Condition","time_Instructions_Training_Condition","time_Pause_1","time_Task_Loop","time_Task_Loop_with_Pause","time_Training_Loop","time_Trial_Loop_Task_Phase","time_Trial_Loop_Training_Condition_Phase","time_Trial_sequence_Task_logger","time_Trial_sequence_Task_mouse_response","time_Trial_sequence_Task_sketchpad","time_Trial_sequence_training_logger","time_Trial_sequence_training_mouse_response","time_Trial_sequence_training_sketchpad","time_artefact_filter_Task_inline_javascript","time_artefact_filter_training_inline_javascript","time_jitter_task_js","time_jitter_training_js","time_mask_task_sketchpad","time_mask_training_sketchpad","time_new_inline_javascript","title","total_correct","total_response_time","total_responses","uniform_coordinates","width"
"","100","1","0","100","100","44","44","white","no","osweb","osweb","False","osweb","0","go","uniform","0","","1","left_button","0","","","0","0","","0","","","0","","0","","0","","","","","0","0","0","0","","0","","0","","0","0","0","0","False","False","undefined","36.73105044314179","142.18938748521802","Mon Jun 01 2026 07:47:34 GMT-0300 (Horário Padrão de Brasília)","The main experiment item","1","False","G:\Meu Drive\OpenSesame\Meus Testes","False","mono","False","20","no","black","no","no","1200","768","1366","True","1","0e898882-95ec-c5fa-7243-984eb4ce1ec7","1338","osweb","0","osweb","","2","osweb","2.2.9","null","False","752","1350","0","0","1","yes","0","1","","1","44","","44","2","osweb","8","8","8","8","0","0","1780310923872","1024","2","48000","-16","task","","5","odd","","2924","","","49","49","","2925","","","","7626","7575","7308","","7625","","5956","","5956","48","Go No-Go Task (SART)","1","44","1","yes","1920"
"","100","1","0","50","50","599","599","white","no","osweb","osweb","False","osweb","0","nogo","uniform","1","","0","timeout","0","","","0","0","","0","","","0","","0","","0","","","","","1","1","1","1","","1","","1","","1","0","0","0","False","False","undefined","36.73105044314179","142.18938748521802","Mon Jun 01 2026 07:47:34 GMT-0300 (Horário Padrão de Brasília)","The main experiment item","1","False","G:\Meu Drive\OpenSesame\Meus Testes","False","mono","False","20","no","black","no","no","1200","768","1366","True","0","0e898882-95ec-c5fa-7243-984eb4ce1ec7","835","osweb","0","osweb","","3","osweb","2.2.9","null","False","752","1350","0","0","1","yes","0","None","","None","1154","","1154","2","osweb","8","8","8","8","0","0","1780310923872","1024","2","48000","-16","task","","5","odd","","2924","","","49","49","","2925","","","","9900","8746","8479","","9900","","7631","","7631","48","Go No-Go Task (SART)","1","1198","2","yes","1920"
"","100","1","0","67","67","432","432","white","no","osweb","osweb","False","osweb","0","go","uniform","0","","1","left_button","0","","","0","0","","0","","","0","","0","","0","","","","","2","2","2","2","","2","","2","","2","0","0","0","False","False","undefined","38.29355441679488","142.18938748521802","Mon Jun 01 2026 07:47:34 GMT-0300 (Horário Padrão de Brasília)","The main experiment item","1","False","G:\Meu Drive\OpenSesame\Meus Testes","False","mono","False","20","no","black","no","no","1200","768","1366","True","1","0e898882-95ec-c5fa-7243-984eb4ce1ec7","1349","osweb","0","osweb","","4","osweb","2.2.9","null","False","752","1350","0","0","1","yes","0","1","","1","98","","98","2","osweb","8","8","8","8","0","0","1780310923872","1024","2","48000","-16","task","","5","odd","","2924","","","49","49","","2925","","","","11622","11522","11255","","11622","","9903","","9903","48","Go No-Go Task (SART)","2","1296","3","yes","1920"
"","100","1","0","75","75","407","407","white","no","osweb","osweb","False","osweb","0","go","uniform","1","","1","left_button","0","","","0","0","","0","","","0","","0","","0","","","","","3","3","3","3","","3","","3","","3","0","0","0","False","False","undefined","38.29355441679488","142.18938748521802","Mon Jun 01 2026 07:47:34 GMT-0300 (Horário Padrão de Brasília)","The main experiment item","1","False","G:\Meu Drive\OpenSesame\Meus Testes","False","mono","False","20","no","black","no","no","1200","768","1366","True","0","0e898882-95ec-c5fa-7243-984eb4ce1ec7","897","osweb","0","osweb","","7","osweb","2.2.9","null","False","752","1350","0","0","1","yes","0","1","","1","332","","332","2","osweb","8","8","8","8","0","0","1780310923872","1024","2","48000","-16","task","","5","odd","","2924","","","49","49","","2925","","","","13128","12793","12526","","13128","","11625","","11626","48","Go No-Go Task (SART)","3","1628","4","yes","1920"
"","100","1","0","80","80","366","366","white","no","osweb","osweb","False","osweb","0","go","uniform","1","","1","left_button","0","","","0","0","","0","","","0","","0","","0","","","","","4","4","4","4","","4","","4","","4","0","0","0","False","False","undefined","38.29355441679488","142.18938748521802","Mon Jun 01 2026 07:47:34 GMT-0300 (Horário Padrão de Brasília)","The main experiment item","1","False","G:\Meu Drive\OpenSesame\Meus Testes","False","mono","False","20","no","black","no","no","1200","768","1366","True","0","0e898882-95ec-c5fa-7243-984eb4ce1ec7","843","osweb","0","osweb","","6","osweb","2.2.9","null","False","752","1350","0","0","1","yes","0","1","","1","201","","201","2","osweb","8","8","8","8","0","0","1780310923872","1024","2","48000","-16","task","","5","odd","","2924","","","49","49","","2925","","","","14466","14248","13981","","14466","","13131","","13131","48","Go No-Go Task (SART)","4","1829","5","yes","1920"
"","100","1","0","83","83","322","322","white","no","osweb","osweb","False","osweb","0","go","uniform","1","","1","left_button","0","","","0","0","","0","","","0","","0","","0","","","","","5","5","5","5","","5","","5","","5","0","0","0","False","False","undefined","38.29355441679488","142.18938748521802","Mon Jun 01 2026 07:47:34 GMT-0300 (Horário Padrão de Brasília)","The main experiment item","1","False","G:\Meu Drive\OpenSesame\Meus Testes","False","mono","False","20","no","black","no","no","1200","768","1366","True","0","0e898882-95ec-c5fa-7243-984eb4ce1ec7","1349","osweb","0","osweb","","2","osweb","2.2.9","null","False","752","1350","0","0","1","yes","0","1","","1","100","","100","2","osweb","8","8","8","8","0","0","1780310923872","1024","2","48000","-16","task","","5","odd","","2924","","","49","49","","2925","","","","16172","16071","15820","","16171","","14468","","14468","48","Go No-Go Task (SART)","5","1929","6","yes","1920"
"","100","1","0","86","86","311","311","white","no","osweb","osweb","False","osweb","0","go","uniform","1","","1","left_button","0","","","0","0","","0","","","0","","0","","0","","","","","6","6","6","6","","6","","6","","6","0","0","0","False","False","undefined","38.29355441679488","142.18938748521802","Mon Jun 01 2026 07:47:34 GMT-0300 (Horário Padrão de Brasília)","The main experiment item","1","False","G:\Meu Drive\OpenSesame\Meus Testes","False","mono","False","20","no","black","no","no","1200","768","1366","True","0","0e898882-95ec-c5fa-7243-984eb4ce1ec7","885","osweb","0","osweb","","8","osweb","2.2.9","null","False","752","1350","0","0","1","yes","0","1","","1","249","","249","2","osweb","8","8","8","8","0","0","1780310923872","1024","2","48000","-16","task","","5","odd","","2924","","","49","49","","2925","","","","17577","17326","17075","","17577","","16174","","16174","48","Go No-Go Task (SART)","6","2178","7","yes","1920"
"","100","1","0","88","88","282","282","white","no","osweb","osweb","False","osweb","0","go","uniform","0","","1","left_button","0","","","0","0","","0","","","0","","0","","0","","","","","7","7","7","7","","7","","7","","7","0","0","0","False","False","undefined","38.29355441679488","142.18938748521802","Mon Jun 01 2026 07:47:34 GMT-0300 (Horário Padrão de Brasília)","The main experiment item","1","False","G:\Meu Drive\OpenSesame\Meus Testes","False","mono","False","20","no","black","no","no","1200","768","1366","True","1","0e898882-95ec-c5fa-7243-984eb4ce1ec7","1210","osweb","0","osweb","","5","osweb","2.2.9","null","False","752","1350","0","0","1","yes","0","1","","1","74","","74","2","osweb","8","8","8","8","0","0","1780310923872","1024","2","48000","-16","task","","5","odd","","2924","","","49","49","","2925","","","","19149","19065","18798","","19149","","17579","","17579","48","Go No-Go Task (SART)","7","2252","8","yes","1920"
"","100","1","0","89","89","260","260","white","no","osweb","osweb","False","osweb","0","go","uniform","0","","1","left_button","0","","","0","0","","0","","","0","","0","","0","","","","","8","8","8","8","","8","","8","","8","0","0","0","False","False","undefined","38.29355441679488","142.18938748521802","Mon Jun 01 2026 07:47:34 GMT-0300 (Horário Padrão de Brasília)","The main experiment item","1","False","G:\Meu Drive\OpenSesame\Meus Testes","False","mono","False","20","no","black","no","no","1200","768","1366","True","1","0e898882-95ec-c5fa-7243-984eb4ce1ec7","1400","osweb","0","osweb","","6","osweb","2.2.9","null","False","752","1350","0","0","1","yes","0","1","","1","84","","84","2","osweb","8","8","8","8","0","0","1780310923872","1024","2","48000","-16","task","","5","odd","","2924","","","49","49","","2925","","","","20922","20821","20554","","20921","","19151","","19151","48","Go No-Go Task (SART)","8","2336","9","yes","1920"
"","100","1","0","90","90","252","252","white","no","osweb","osweb","False","osweb","0","go","uniform","1","","1","left_button","0","","","0","0","","0","","","0","","0","","0","","","","","9","9","9","9","","9","","9","","9","0","0","0","False","False","undefined","38.29355441679488","142.18938748521802","Mon Jun 01 2026 07:47:34 GMT-0300 (Horário Padrão de Brasília)","The main experiment item","1","False","G:\Meu Drive\OpenSesame\Meus Testes","False","mono","False","20","no","black","no","no","1200","768","1366","True","0","0e898882-95ec-c5fa-7243-984eb4ce1ec7","1068","osweb","0","osweb","","1","osweb","2.2.9","null","False","752","1350","0","0","1","yes","0","1","","1","179","","179","2","osweb","8","8","8","8","0","0","1780310923872","1024","2","48000","-16","task","","5","odd","","2924","","","49","49","","2925","","","","22460","22276","22009","","22460","","20925","","20925","48","Go No-Go Task (SART)","9","2515","10","yes","1920"
"","100","1","0","91","91","245","245","white","no","osweb","osweb","False","osweb","0","go","uniform","1","","1","left_button","0","","","0","0","","0","","","0","","0","","0","","","","","10","10","10","10","","10","","10","","10","0","0","0","False","False","undefined","38.29355441679488","142.18938748521802","Mon Jun 01 2026 07:47:34 GMT-0300 (Horário Padrão de Brasília)","The main experiment item","1","False","G:\Meu Drive\OpenSesame\Meus Testes","False","mono","False","20","no","black","no","no","1200","768","1366","True","0","0e898882-95ec-c5fa-7243-984eb4ce1ec7","1384","osweb","0","osweb","","8","osweb","2.2.9","null","False","752","1350","0","0","1","yes","0","1","","1","176","","176","2","osweb","8","8","8","8","0","0","1780310923872","1024","2","48000","-16","task","","5","odd","","2924","","","49","49","","2925","","","","24283","24099","23848","","24283","","22463","","22463","48","Go No-Go Task (SART)","10","2691","11","yes","1920"
"","100","1","0","92","92","232","232","white","no","osweb","osweb","False","osweb","0","go","uniform","0","","1","left_button","0","","","0","0","","0","","","0","","0","","0","","","","","11","11","11","11","","11","","11","","11","0","0","0","False","False","undefined","38.29355441679488","135.93937159060565","Mon Jun 01 2026 07:47:34 GMT-0300 (Horário Padrão de Brasília)","The main experiment item","1","False","G:\Meu Drive\OpenSesame\Meus Testes","False","mono","False","20","no","black","no","no","1200","768","1366","True","1","0e898882-95ec-c5fa-7243-984eb4ce1ec7","1059","osweb","0","osweb","","1","osweb","2.2.9","null","False","752","1350","0","0","1","yes","0","1","","1","98","","98","2","osweb","8","8","8","8","0","0","1780310923872","1024","2","48000","-16","task","","5","odd","","2924","","","49","49","","2925","","","","25721","25621","25354","","25721","","24285","","24286","48","Go No-Go Task (SART)","11","2789","12","yes","1920"
"","100","1","0","92","92","222","222","white","no","osweb","osweb","False","osweb","0","go","uniform","1","","1","left_button","0","","","0","0","","0","","","0","","0","","0","","","","","12","12","12","12","","12","","12","","12","0","0","0","False","False","undefined","38.29355441679488","135.93937159060565","Mon Jun 01 2026 07:47:34 GMT-0300 (Horário Padrão de Brasília)","The main experiment item","1","False","G:\Meu Drive\OpenSesame\Meus Testes","False","mono","False","20","no","black","no","no","1200","768","1366","True","0","0e898882-95ec-c5fa-7243-984eb4ce1ec7","1213","osweb","0","osweb","","7","osweb","2.2.9","null","False","752","1350","0","0","1","yes","0","1","","1","100","","100","2","osweb","8","8","8","8","0","0","1780310923872","1024","2","48000","-16","task","","5","odd","","2924","","","49","49","","2925","","","","27294","27193","26942","","27293","","25724","","25724","48","Go No-Go Task (SART)","12","2889","13","yes","1920"
"","100","1","0","93","93","218","218","white","no","osweb","osweb","False","osweb","0","go","uniform","1","","1","left_button","0","","","0","0","","0","","","0","","0","","0","","","","","13","13","13","13","","13","","13","","13","0","0","0","False","False","undefined","38.29355441679488","135.93937159060565","Mon Jun 01 2026 07:47:34 GMT-0300 (Horário Padrão de Brasília)","The main experiment item","1","False","G:\Meu Drive\OpenSesame\Meus Testes","False","mono","False","20","no","black","no","no","1200","768","1366","True","0","0e898882-95ec-c5fa-7243-984eb4ce1ec7","871","osweb","0","osweb","","4","osweb","2.2.9","null","False","752","1350","0","0","1","yes","0","1","","1","166","","166","2","osweb","8","8","8","8","0","0","1780310923872","1024","2","48000","-16","task","","5","odd","","2924","","","49","49","","2925","","","","28598","28431","28180","","28598","","27296","","27296","48","Go No-Go Task (SART)","13","3055","14","yes","1920"
"","100","1","0","93","93","209","209","white","no","osweb","osweb","False","osweb","0","go","uniform","0","","1","left_button","0","","","0","0","","0","","","0","","0","","0","","","","","14","14","14","14","","14","","14","","14","0","0","0","False","False","undefined","38.29355441679488","135.93937159060565","Mon Jun 01 2026 07:47:34 GMT-0300 (Horário Padrão de Brasília)","The main experiment item","1","False","G:\Meu Drive\OpenSesame\Meus Testes","False","mono","False","20","no","black","no","no","1200","768","1366","True","1","0e898882-95ec-c5fa-7243-984eb4ce1ec7","945","osweb","0","osweb","","9","osweb","2.2.9","null","False","752","1350","0","0","1","yes","0","1","","1","84","","84","2","osweb","8","8","8","8","0","0","1780310923872","1024","2","48000","-16","task","","5","odd","","2924","","","49","49","","2925","","","","29920","29819","29552","","29919","","28601","","28601","48","Go No-Go Task (SART)","14","3139","15","yes","1920"
"","100","1","0","94","94","207","207","white","no","osweb","osweb","False","osweb","0","go","uniform","1","","1","left_button","0","","","0","0","","0","","","0","","0","","0","","","","","15","15","15","15","","15","","15","","15","0","0","0","False","False","undefined","38.29355441679488","135.93937159060565","Mon Jun 01 2026 07:47:34 GMT-0300 (Horário Padrão de Brasília)","The main experiment item","1","False","G:\Meu Drive\OpenSesame\Meus Testes","False","mono","False","20","no","black","no","no","1200","768","1366","True","0","0e898882-95ec-c5fa-7243-984eb4ce1ec7","887","osweb","0","osweb","","5","osweb","2.2.9","null","False","752","1350","0","0","1","yes","0","1","","1","168","","168","2","osweb","8","8","8","8","0","0","1780310923872","1024","2","48000","-16","task","","5","odd","","2924","","","49","49","","2925","","","","31257","31073","30822","","31257","","29922","","29922","48","Go No-Go Task (SART)","15","3307","16","yes","1920"
"","100","1","0","94","94","208","208","white","no","osweb","osweb","False","osweb","0","go","uniform","1","","1","left_button","0","","","0","0","","0","","","0","","0","","0","","","","","16","16","16","16","","16","","16","","16","0","0","0","False","False","undefined","38.29355441679488","135.93937159060565","Mon Jun 01 2026 07:47:34 GMT-0300 (Horário Padrão de Brasília)","The main experiment item","1","False","G:\Meu Drive\OpenSesame\Meus Testes","False","mono","False","20","no","black","no","no","1200","768","1366","True","0","0e898882-95ec-c5fa-7243-984eb4ce1ec7","971","osweb","0","osweb","","9","osweb","2.2.9","null","False","752","1350","0","0","1","yes","0","1","","1","222","","222","2","osweb","8","8","8","8","0","0","1780310923872","1024","2","48000","-16","task","","5","odd","","2924","","","49","49","","2925","","","","32729","32495","32244","","32729","","31259","","31260","48","Go No-Go Task (SART)","16","3529","17","yes","1920"
"","100","1","0","89","89","260","260","white","no","osweb","osweb","False","osweb","0","nogo","uniform","1","","0","timeout","0","","","0","0","","0","","","0","","0","","0","","","","","17","17","17","17","","17","","17","","17","0","0","0","False","False","undefined","38.29355441679488","135.93937159060565","Mon Jun 01 2026 07:47:34 GMT-0300 (Horário Padrão de Brasília)","The main experiment item","1","False","G:\Meu Drive\OpenSesame\Meus Testes","False","mono","False","20","no","black","no","no","1200","768","1366","True","0","0e898882-95ec-c5fa-7243-984eb4ce1ec7","1365","osweb","0","osweb","","3","osweb","2.2.9","null","False","752","1350","0","0","1","yes","0","None","","None","1154","","1154","2","osweb","8","8","8","8","0","0","1780310923872","1024","2","48000","-16","task","","5","odd","","2924","","","49","49","","2925","","","","35522","34368","34101","","35522","","32731","","32731","48","Go No-Go Task (SART)","16","4683","18","yes","1920"
"","100","1","0","89","89","252","252","white","no","osweb","osweb","False","osweb","0","go","uniform","1","1","0","left_button","0","0","0","0","0","0","0","0","0","0","0","0","0","0","0","0","0","0","17","17","17","17","0","17","0","17","0","17","0","0","0","False","False","undefined","63.29361799524433","281.2522411403431","Mon Jun 01 2026 07:47:34 GMT-0300 (Horário Padrão de Brasília)","The main experiment item","1","False","G:\Meu Drive\OpenSesame\Meus Testes","False","mono","False","20","no","black","no","no","1200","768","1366","True","0","0e898882-95ec-c5fa-7243-984eb4ce1ec7","1208","osweb","0","osweb","","1","osweb","2.2.9","null","False","752","1350","0","0","1","no","0","1","1","None","108","108","1154","2","osweb","8","8","8","8","0","0","1780310923872","1024","2","48000","-16","task","","5","odd","91134","2924","61123","61123","49","49","91134","2925","95731","95614","95363","35522","34368","34101","95731","35522","94150","32731","94150","32731","48","Go No-Go Task (SART)","17","4791","19","yes","1920"
"","100","1","0","90","90","245","245","white","no","osweb","osweb","False","osweb","0","go","uniform","1","1","0","left_button","0","0","0","0","0","0","0","0","0","0","0","0","0","0","1","1","1","1","17","17","17","17","1","17","1","17","1","17","0","0","0","False","False","undefined","63.29361799524433","281.2522411403431","Mon Jun 01 2026 07:47:34 GMT-0300 (Horário Padrão de Brasília)","The main experiment item","1","False","G:\Meu Drive\OpenSesame\Meus Testes","False","mono","False","20","no","black","no","no","1200","768","1366","True","0","0e898882-95ec-c5fa-7243-984eb4ce1ec7","1155","osweb","0","osweb","","7","osweb","2.2.9","null","False","752","1350","0","0","1","no","0","1","1","None","114","114","1154","2","osweb","8","8","8","8","0","0","1780310923872","1024","2","48000","-16","task","","5","odd","91134","2924","61123","61123","49","49","91134","2925","97286","97169","96902","35522","34368","34101","97286","35522","95733","32731","95733","32731","48","Go No-Go Task (SART)","18","4905","20","yes","1920"
"","100","1","0","90","90","238","238","white","no","osweb","osweb","False","osweb","0","go","uniform","0","1","0","left_button","0","0","0","0","0","0","0","0","0","0","0","0","0","0","2","2","2","2","17","17","17","17","2","17","2","17","2","17","0","0","0","False","False","undefined","63.29361799524433","281.2522411403431","Mon Jun 01 2026 07:47:34 GMT-0300 (Horário Padrão de Brasília)","The main experiment item","1","False","G:\Meu Drive\OpenSesame\Meus Testes","False","mono","False","20","no","black","no","no","1200","768","1366","True","1","0e898882-95ec-c5fa-7243-984eb4ce1ec7","1121","osweb","0","osweb","","4","osweb","2.2.9","null","False","752","1350","0","0","1","no","0","1","1","None","92","92","1154","2","osweb","8","8","8","8","0","0","1780310923872","1024","2","48000","-16","task","","5","odd","91134","2924","61123","61123","49","49","91134","2925","98791","98691","98424","35522","34368","34101","98791","35522","97289","32731","97289","32731","48","Go No-Go Task (SART)","19","4997","21","yes","1920"
"","100","1","0","91","91","230","230","white","no","osweb","osweb","False","osweb","0","go","uniform","0","1","0","left_button","0","0","0","0","0","0","0","0","0","0","0","0","0","0","3","3","3","3","17","17","17","17","3","17","3","17","3","17","0","0","0","False","False","undefined","63.29361799524433","281.2522411403431","Mon Jun 01 2026 07:47:34 GMT-0300 (Horário Padrão de Brasília)","The main experiment item","1","False","G:\Meu Drive\OpenSesame\Meus Testes","False","mono","False","20","no","black","no","no","1200","768","1366","True","1","0e898882-95ec-c5fa-7243-984eb4ce1ec7","1069","osweb","0","osweb","","5","osweb","2.2.9","null","False","752","1350","0","0","1","no","0","1","1","None","57","57","1154","2","osweb","8","8","8","8","0","0","1780310923872","1024","2","48000","-16","task","","5","odd","91134","2924","61123","61123","49","49","91134","2925","100213","100146","99879","35522","34368","34101","100213","35522","98794","32731","98794","32731","48","Go No-Go Task (SART)","20","5054","22","yes","1920"
"","100","1","0","91","91","225","225","white","no","osweb","osweb","False","osweb","0","go","uniform","1","1","0","left_button","0","0","0","0","0","0","0","0","0","0","0","0","0","0","4","4","4","4","17","17","17","17","4","17","4","17","4","17","0","0","0","False","False","undefined","63.29361799524433","281.2522411403431","Mon Jun 01 2026 07:47:34 GMT-0300 (Horário Padrão de Brasília)","The main experiment item","1","False","G:\Meu Drive\OpenSesame\Meus Testes","False","mono","False","20","no","black","no","no","1200","768","1366","True","0","0e898882-95ec-c5fa-7243-984eb4ce1ec7","962","osweb","0","osweb","","4","osweb","2.2.9","null","False","752","1350","0","0","1","no","0","1","1","None","119","119","1154","2","osweb","8","8","8","8","0","0","1780310923872","1024","2","48000","-16","task","","5","odd","91134","2924","61123","61123","49","49","91134","2925","101568","101434","101183","35522","34368","34101","101568","35522","100215","32731","100216","32731","48","Go No-Go Task (SART)","21","5173","23","yes","1920"
"","100","1","0","92","92","223","223","white","no","osweb","osweb","False","osweb","0","go","uniform","1","1","0","left_button","0","0","0","0","0","0","0","0","0","0","0","0","0","0","5","5","5","5","17","17","17","17","5","17","5","17","5","17","0","0","0","False","False","undefined","63.29361799524433","281.2522411403431","Mon Jun 01 2026 07:47:34 GMT-0300 (Horário Padrão de Brasília)","The main experiment item","1","False","G:\Meu Drive\OpenSesame\Meus Testes","False","mono","False","20","no","black","no","no","1200","768","1366","True","0","0e898882-95ec-c5fa-7243-984eb4ce1ec7","839","osweb","0","osweb","","6","osweb","2.2.9","null","False","752","1350","0","0","1","no","0","1","1","None","179","179","1154","2","osweb","8","8","8","8","0","0","1780310923872","1024","2","48000","-16","task","","5","odd","91134","2924","61123","61123","49","49","91134","2925","102872","102688","102421","35522","34368","34101","102872","35522","101570","32731","101570","32731","48","Go No-Go Task (SART)","22","5352","24","yes","1920"
"","100","1","0","92","92","218","218","white","no","osweb","osweb","False","osweb","0","go","uniform","1","1","0","left_button","0","0","0","0","0","0","0","0","0","0","0","0","0","0","6","6","6","6","17","17","17","17","6","17","6","17","6","17","0","0","0","False","False","undefined","63.29361799524433","281.2522411403431","Mon Jun 01 2026 07:47:34 GMT-0300 (Horário Padrão de Brasília)","The main experiment item","1","False","G:\Meu Drive\OpenSesame\Meus Testes","False","mono","False","20","no","black","no","no","1200","768","1366","True","0","0e898882-95ec-c5fa-7243-984eb4ce1ec7","1367","osweb","0","osweb","","9","osweb","2.2.9","null","False","752","1350","0","0","1","no","0","1","1","None","110","110","1154","2","osweb","8","8","8","8","0","0","1780310923872","1024","2","48000","-16","task","","5","odd","91134","2924","61123","61123","49","49","91134","2925","104628","104511","104244","35522","34368","34101","104628","35522","102874","32731","102875","32731","48","Go No-Go Task (SART)","23","5462","25","yes","1920"
"","100","1","0","92","92","217","217","white","no","osweb","osweb","False","osweb","0","go","uniform","1","1","0","left_button","0","0","0","0","0","0","0","0","0","0","0","0","0","0","7","7","7","7","17","17","17","17","7","17","7","17","7","17","0","0","0","False","False","undefined","63.29361799524433","281.2522411403431","Mon Jun 01 2026 07:47:34 GMT-0300 (Horário Padrão de Brasília)","The main experiment item","1","False","G:\Meu Drive\OpenSesame\Meus Testes","False","mono","False","20","no","black","no","no","1200","768","1366","True","0","0e898882-95ec-c5fa-7243-984eb4ce1ec7","884","osweb","0","osweb","","1","osweb","2.2.9","null","False","752","1350","0","0","1","no","0","1","1","None","192","192","1154","2","osweb","8","8","8","8","0","0","1780310923872","1024","2","48000","-16","task","","5","odd","91134","2924","61123","61123","49","49","91134","2925","106000","105799","105532","35522","34368","34101","106000","35522","104631","32731","104631","32731","48","Go No-Go Task (SART)","24","5654","26","yes","1920"
"","100","1","0","93","93","213","213","white","no","osweb","osweb","False","osweb","0","go","uniform","1","1","0","left_button","0","0","0","0","0","0","0","0","0","0","0","0","0","0","8","8","8","8","17","17","17","17","8","17","8","17","8","17","0","0","0","False","False","undefined","63.29361799524433","281.2522411403431","Mon Jun 01 2026 07:47:34 GMT-0300 (Horário Padrão de Brasília)","The main experiment item","1","False","G:\Meu Drive\OpenSesame\Meus Testes","False","mono","False","20","no","black","no","no","1200","768","1366","True","0","0e898882-95ec-c5fa-7243-984eb4ce1ec7","1226","osweb","0","osweb","","8","osweb","2.2.9","null","False","752","1350","0","0","1","no","0","1","1","None","106","106","1154","2","osweb","8","8","8","8","0","0","1780310923872","1024","2","48000","-16","task","","5","odd","91134","2924","61123","61123","49","49","91134","2925","107622","107505","107238","35522","34368","34101","107622","35522","106002","32731","106002","32731","48","Go No-Go Task (SART)","25","5760","27","yes","1920"
"","100","1","0","93","93","211","211","white","no","osweb","osweb","False","osweb","0","go","uniform","1","1","0","left_button","0","0","0","0","0","0","0","0","0","0","0","0","0","0","9","9","9","9","17","17","17","17","9","17","9","17","9","17","0","0","0","False","False","undefined","63.29361799524433","281.2522411403431","Mon Jun 01 2026 07:47:34 GMT-0300 (Horário Padrão de Brasília)","The main experiment item","1","False","G:\Meu Drive\OpenSesame\Meus Testes","False","mono","False","20","no","black","no","no","1200","768","1366","True","0","0e898882-95ec-c5fa-7243-984eb4ce1ec7","924","osweb","0","osweb","","8","osweb","2.2.9","null","False","752","1350","0","0","1","no","0","1","1","None","160","160","1154","2","osweb","8","8","8","8","0","0","1780310923872","1024","2","48000","-16","task","","5","odd","91134","2924","61123","61123","49","49","91134","2925","108993","108826","108559","35522","34368","34101","108993","35522","107625","32731","107625","32731","48","Go No-Go Task (SART)","26","5920","28","yes","1920"
"","100","1","0","93","93","208","208","white","no","osweb","osweb","False","osweb","0","go","uniform","1","1","0","left_button","0","0","0","0","0","0","0","0","0","0","0","0","0","0","10","10","10","10","17","17","17","17","10","17","10","17","10","17","0","0","0","False","False","undefined","63.29361799524433","281.2522411403431","Mon Jun 01 2026 07:47:34 GMT-0300 (Horário Padrão de Brasília)","The main experiment item","1","False","G:\Meu Drive\OpenSesame\Meus Testes","False","mono","False","20","no","black","no","no","1200","768","1366","True","0","0e898882-95ec-c5fa-7243-984eb4ce1ec7","1222","osweb","0","osweb","","9","osweb","2.2.9","null","False","752","1350","0","0","1","no","0","1","1","None","123","123","1154","2","osweb","8","8","8","8","0","0","1780310923872","1024","2","48000","-16","task","","5","odd","91134","2924","61123","61123","49","49","91134","2925","110616","110482","110231","35522","34368","34101","110616","35522","108996","32731","108996","32731","48","Go No-Go Task (SART)","27","6043","29","yes","1920"
"","100","1","0","93","93","209","209","white","no","osweb","osweb","False","osweb","0","go","uniform","1","1","0","left_button","0","0","0","0","0","0","0","0","0","0","0","0","0","0","11","11","11","11","17","17","17","17","11","17","11","17","11","17","0","0","0","False","False","undefined","63.29361799524433","276.56472921938376","Mon Jun 01 2026 07:47:34 GMT-0300 (Horário Padrão de Brasília)","The main experiment item","1","False","G:\Meu Drive\OpenSesame\Meus Testes","False","mono","False","20","no","black","no","no","1200","768","1366","True","0","0e898882-95ec-c5fa-7243-984eb4ce1ec7","1041","osweb","0","osweb","","6","osweb","2.2.9","null","False","752","1350","0","0","1","no","0","1","1","None","217","217","1154","2","osweb","8","8","8","8","0","0","1780310923872","1024","2","48000","-16","task","","5","odd","91134","2924","61123","61123","49","49","91134","2925","112154","111937","111670","35522","34368","34101","112154","35522","110618","32731","110618","32731","48","Go No-Go Task (SART)","28","6260","30","yes","1920"
"","100","1","0","94","94","209","209","white","no","osweb","osweb","False","osweb","0","go","uniform","1","1","0","left_button","0","0","0","0","0","0","0","0","0","0","0","0","0","0","12","12","12","12","17","17","17","17","12","17","12","17","12","17","0","0","0","False","False","undefined","63.29361799524433","276.56472921938376","Mon Jun 01 2026 07:47:34 GMT-0300 (Horário Padrão de Brasília)","The main experiment item","1","False","G:\Meu Drive\OpenSesame\Meus Testes","False","mono","False","20","no","black","no","no","1200","768","1366","True","0","0e898882-95ec-c5fa-7243-984eb4ce1ec7","956","osweb","0","osweb","","1","osweb","2.2.9","null","False","752","1350","0","0","1","no","0","1","1","None","233","233","1154","2","osweb","8","8","8","8","0","0","1780310923872","1024","2","48000","-16","task","","5","odd","91134","2924","61123","61123","49","49","91134","2925","113626","113392","113125","35522","34368","34101","113626","35522","112156","32731","112157","32731","48","Go No-Go Task (SART)","29","6493","31","yes","1920"
"","100","1","0","94","94","205","205","white","no","osweb","osweb","False","osweb","0","go","uniform","0","1","0","left_button","0","0","0","0","0","0","0","0","0","0","0","0","0","0","13","13","13","13","17","17","17","17","13","17","13","17","13","17","0","0","0","False","False","undefined","63.29361799524433","276.56472921938376","Mon Jun 01 2026 07:47:34 GMT-0300 (Horário Padrão de Brasília)","The main experiment item","1","False","G:\Meu Drive\OpenSesame\Meus Testes","False","mono","False","20","no","black","no","no","1200","768","1366","True","1","0e898882-95ec-c5fa-7243-984eb4ce1ec7","1304","osweb","0","osweb","","5","osweb","2.2.9","null","False","752","1350","0","0","1","no","0","1","1","None","77","77","1154","2","osweb","8","8","8","8","0","0","1780310923872","1024","2","48000","-16","task","","5","odd","91134","2924","61123","61123","49","49","91134","2925","115299","115215","114948","35522","34368","34101","115299","35522","113628","32731","113629","32731","48","Go No-Go Task (SART)","30","6570","32","yes","1920"
"","100","1","0","94","94","202","202","white","no","osweb","osweb","False","osweb","0","go","uniform","0","1","0","left_button","0","0","0","0","0","0","0","0","0","0","0","0","0","0","14","14","14","14","17","17","17","17","14","17","14","17","14","17","0","0","0","False","False","undefined","63.29361799524433","276.56472921938376","Mon Jun 01 2026 07:47:34 GMT-0300 (Horário Padrão de Brasília)","The main experiment item","1","False","G:\Meu Drive\OpenSesame\Meus Testes","False","mono","False","20","no","black","no","no","1200","768","1366","True","1","0e898882-95ec-c5fa-7243-984eb4ce1ec7","1252","osweb","0","osweb","","4","osweb","2.2.9","null","False","752","1350","0","0","1","no","0","1","1","None","94","94","1154","2","osweb","8","8","8","8","0","0","1780310923872","1024","2","48000","-16","task","","5","odd","91134","2924","61123","61123","49","49","91134","2925","116938","116837","116570","35522","34368","34101","116938","35522","115301","32731","115301","32731","48","Go No-Go Task (SART)","31","6664","33","yes","1920"
"","100","1","0","94","94","203","203","white","no","osweb","osweb","False","osweb","0","go","uniform","1","1","0","left_button","0","0","0","0","0","0","0","0","0","0","0","0","0","0","15","15","15","15","17","17","17","17","15","17","15","17","15","17","0","0","0","False","False","undefined","63.29361799524433","276.56472921938376","Mon Jun 01 2026 07:47:34 GMT-0300 (Horário Padrão de Brasília)","The main experiment item","1","False","G:\Meu Drive\OpenSesame\Meus Testes","False","mono","False","20","no","black","no","no","1200","768","1366","True","0","0e898882-95ec-c5fa-7243-984eb4ce1ec7","1252","osweb","0","osweb","","5","osweb","2.2.9","null","False","752","1350","0","0","1","no","0","1","1","None","231","231","1154","2","osweb","8","8","8","8","0","0","1780310923872","1024","2","48000","-16","task","","5","odd","91134","2924","61123","61123","49","49","91134","2925","118711","118476","118209","35522","34368","34101","118710","35522","116940","32731","116940","32731","48","Go No-Go Task (SART)","32","6895","34","yes","1920"
"","100","1","0","94","94","203","203","white","no","osweb","osweb","False","osweb","0","go","uniform","1","1","0","left_button","0","0","0","0","0","0","0","0","0","0","0","0","0","0","16","16","16","16","17","17","17","17","16","17","16","17","16","17","0","0","0","False","False","undefined","63.29361799524433","276.56472921938376","Mon Jun 01 2026 07:47:34 GMT-0300 (Horário Padrão de Brasília)","The main experiment item","1","False","G:\Meu Drive\OpenSesame\Meus Testes","False","mono","False","20","no","black","no","no","1200","768","1366","True","0","0e898882-95ec-c5fa-7243-984eb4ce1ec7","1420","osweb","0","osweb","","2","osweb","2.2.9","null","False","752","1350","0","0","1","no","0","1","1","None","215","215","1154","2","osweb","8","8","8","8","0","0","1780310923872","1024","2","48000","-16","task","","5","odd","91134","2924","61123","61123","49","49","91134","2925","120617","120400","120149","35522","34368","34101","120617","35522","118713","32731","118713","32731","48","Go No-Go Task (SART)","33","7110","35","yes","1920"
"","100","1","0","94","94","203","203","white","no","osweb","osweb","False","osweb","0","go","uniform","1","1","0","left_button","0","0","0","0","0","0","0","0","0","0","0","0","0","0","17","17","17","17","17","17","17","17","17","17","17","17","17","17","0","0","0","False","False","undefined","66.4186259425505","273.43972127207763","Mon Jun 01 2026 07:47:34 GMT-0300 (Horário Padrão de Brasília)","The main experiment item","1","False","G:\Meu Drive\OpenSesame\Meus Testes","False","mono","False","20","no","black","no","no","1200","768","1366","True","0","0e898882-95ec-c5fa-7243-984eb4ce1ec7","962","osweb","0","osweb","","6","osweb","2.2.9","null","False","752","1350","0","0","1","no","0","1","1","None","208","208","1154","2","osweb","8","8","8","8","0","0","1780310923872","1024","2","48000","-16","task","","5","odd","91134","2924","61123","61123","49","49","91134","2925","122055","121838","121587","35522","34368","34101","122055","35522","120619","32731","120620","32731","48","Go No-Go Task (SART)","34","7318","36","yes","1920"
"","100","1","0","95","95","204","204","white","no","osweb","osweb","False","osweb","0","go","uniform","1","1","0","left_button","0","0","0","0","0","0","0","0","0","0","0","0","0","0","18","18","18","18","17","17","17","17","18","17","18","17","18","17","0","0","0","False","False","undefined","64.85612196889743","250.00216166728126","Mon Jun 01 2026 07:47:34 GMT-0300 (Horário Padrão de Brasília)","The main experiment item","1","False","G:\Meu Drive\OpenSesame\Meus Testes","False","mono","False","20","no","black","no","no","1200","768","1366","True","0","0e898882-95ec-c5fa-7243-984eb4ce1ec7","1434","osweb","0","osweb","","9","osweb","2.2.9","null","False","752","1350","0","0","1","no","0","1","1","None","219","219","1154","2","osweb","8","8","8","8","0","0","1780310923872","1024","2","48000","-16","task","","5","odd","91134","2924","61123","61123","49","49","91134","2925","123979","123745","123494","35522","34368","34101","123979","35522","122058","32731","122058","32731","48","Go No-Go Task (SART)","35","7537","37","yes","1920"
"","100","1","0","95","95","203","203","white","no","osweb","osweb","False","osweb","0","go","uniform","1","1","0","left_button","0","0","0","0","0","0","0","0","0","0","0","0","0","0","19","19","19","19","17","17","17","17","19","17","19","17","19","17","0","0","0","False","False","undefined","66.4186259425505","250.00216166728126","Mon Jun 01 2026 07:47:34 GMT-0300 (Horário Padrão de Brasília)","The main experiment item","1","False","G:\Meu Drive\OpenSesame\Meus Testes","False","mono","False","20","no","black","no","no","1200","768","1366","True","0","0e898882-95ec-c5fa-7243-984eb4ce1ec7","902","osweb","0","osweb","","9","osweb","2.2.9","null","False","752","1350","0","0","1","no","0","1","1","None","186","186","1154","2","osweb","8","8","8","8","0","0","1780310923872","1024","2","48000","-16","task","","5","odd","91134","2924","61123","61123","49","49","91134","2925","125367","125166","124899","35522","34368","34101","125367","35522","123981","32731","123981","32731","48","Go No-Go Task (SART)","36","7723","38","yes","1920"
"","100","1","0","92","92","228","228","white","no","osweb","osweb","False","osweb","0","nogo","uniform","1","0","0","timeout","0","0","0","0","0","0","0","0","0","0","0","0","0","0","20","20","20","20","17","17","17","17","20","17","20","17","20","17","0","0","0","False","False","undefined","66.4186259425505","250.00216166728126","Mon Jun 01 2026 07:47:34 GMT-0300 (Horário Padrão de Brasília)","The main experiment item","1","False","G:\Meu Drive\OpenSesame\Meus Testes","False","mono","False","20","no","black","no","no","1200","768","1366","True","0","0e898882-95ec-c5fa-7243-984eb4ce1ec7","1191","osweb","0","osweb","","3","osweb","2.2.9","null","False","752","1350","0","0","1","no","0","None","None","None","1154","1154","1154","2","osweb","8","8","8","8","0","0","1780310923872","1024","2","48000","-16","task","","5","odd","91134","2924","61123","61123","49","49","91134","2925","127976","126822","126571","35522","34368","34101","127976","35522","125370","32731","125370","32731","48","Go No-Go Task (SART)","36","8877","39","yes","1920"
"","100","1","0","93","93","224","224","white","no","osweb","osweb","False","osweb","0","go","uniform","0","1","0","left_button","0","0","0","0","0","0","0","0","0","0","0","0","0","0","21","21","21","21","17","17","17","17","21","17","21","17","21","17","0","0","0","False","False","undefined","66.4186259425505","250.00216166728126","Mon Jun 01 2026 07:47:34 GMT-0300 (Horário Padrão de Brasília)","The main experiment item","1","False","G:\Meu Drive\OpenSesame\Meus Testes","False","mono","False","20","no","black","no","no","1200","768","1366","True","1","0e898882-95ec-c5fa-7243-984eb4ce1ec7","934","osweb","0","osweb","","4","osweb","2.2.9","null","False","752","1350","0","0","1","no","0","1","1","None","82","82","1154","2","osweb","8","8","8","8","0","0","1780310923872","1024","2","48000","-16","task","","5","odd","91134","2924","61123","61123","49","49","91134","2925","129264","129180","128929","35522","34368","34101","129264","35522","127978","32731","127978","32731","48","Go No-Go Task (SART)","37","8959","40","yes","1920"
"","100","1","0","90","90","221","221","white","no","osweb","osweb","False","osweb","0","nogo","uniform","0","0","0","timeout","0","0","0","0","0","0","0","0","0","0","0","0","0","0","22","22","22","22","17","17","17","17","22","17","22","17","22","17","0","0","0","False","False","undefined","67.9811299162036","250.00216166728126","Mon Jun 01 2026 07:47:34 GMT-0300 (Horário Padrão de Brasília)","The main experiment item","1","False","G:\Meu Drive\OpenSesame\Meus Testes","False","mono","False","20","no","black","no","no","1200","768","1366","True","0","0e898882-95ec-c5fa-7243-984eb4ce1ec7","880","osweb","0","osweb","","3","osweb","2.2.9","null","False","752","1350","0","0","1","no","0","1","1","None","105","105","1154","2","osweb","8","8","8","8","0","0","1780310923872","1024","2","48000","-16","task","","5","odd","91134","2924","61123","61123","49","49","91134","2925","130518","130401","130150","35522","34368","34101","130518","35522","129266","32731","129266","32731","48","Go No-Go Task (SART)","37","9064","41","yes","1920"
"","100","1","0","90","90","225","225","white","no","osweb","osweb","False","osweb","0","go","uniform","1","1","0","left_button","0","0","0","0","0","0","0","0","0","0","0","0","0","0","23","23","23","23","17","17","17","17","23","17","23","17","23","17","0","0","0","False","False","undefined","67.9811299162036","250.00216166728126","Mon Jun 01 2026 07:47:34 GMT-0300 (Horário Padrão de Brasília)","The main experiment item","1","False","G:\Meu Drive\OpenSesame\Meus Testes","False","mono","False","20","no","black","no","no","1200","768","1366","True","0","0e898882-95ec-c5fa-7243-984eb4ce1ec7","1055","osweb","0","osweb","","1","osweb","2.2.9","null","False","752","1350","0","0","1","no","0","1","1","None","393","393","1154","2","osweb","8","8","8","8","0","0","1780310923872","1024","2","48000","-16","task","","5","odd","91134","2924","61123","61123","49","49","91134","2925","132258","131856","131589","35522","34368","34101","132258","35522","130520","32731","130521","32731","48","Go No-Go Task (SART)","38","9457","42","yes","1920"
"","100","1","0","91","91","223","223","white","no","osweb","osweb","False","osweb","0","go","uniform","1","1","0","left_button","0","0","0","0","0","0","0","0","0","0","0","0","0","0","24","24","24","24","17","17","17","17","24","17","24","17","24","17","0","0","0","False","False","undefined","67.9811299162036","250.00216166728126","Mon Jun 01 2026 07:47:34 GMT-0300 (Horário Padrão de Brasília)","The main experiment item","1","False","G:\Meu Drive\OpenSesame\Meus Testes","False","mono","False","20","no","black","no","no","1200","768","1366","True","0","0e898882-95ec-c5fa-7243-984eb4ce1ec7","1160","osweb","0","osweb","","2","osweb","2.2.9","null","False","752","1350","0","0","1","no","0","1","1","None","149","149","1154","2","osweb","8","8","8","8","0","0","1780310923872","1024","2","48000","-16","task","","5","odd","91134","2924","61123","61123","49","49","91134","2925","133830","133679","133428","35522","34368","34101","133829","35522","132260","32731","132260","32731","48","Go No-Go Task (SART)","39","9606","43","yes","1920"
"","100","1","0","91","91","221","221","white","no","osweb","osweb","False","osweb","0","go","uniform","1","1","0","left_button","0","0","0","0","0","0","0","0","0","0","0","0","0","0","25","25","25","25","17","17","17","17","25","17","25","17","25","17","0","0","0","False","False","undefined","67.9811299162036","250.00216166728126","Mon Jun 01 2026 07:47:34 GMT-0300 (Horário Padrão de Brasília)","The main experiment item","1","False","G:\Meu Drive\OpenSesame\Meus Testes","False","mono","False","20","no","black","no","no","1200","768","1366","True","0","0e898882-95ec-c5fa-7243-984eb4ce1ec7","1413","osweb","0","osweb","","2","osweb","2.2.9","null","False","752","1350","0","0","1","no","0","1","1","None","131","131","1154","2","osweb","8","8","8","8","0","0","1780310923872","1024","2","48000","-16","task","","5","odd","91134","2924","61123","61123","49","49","91134","2925","135636","135502","135251","35522","34368","34101","135636","35522","133832","32731","133832","32731","48","Go No-Go Task (SART)","40","9737","44","yes","1920"
"","100","1","0","91","91","219","219","white","no","osweb","osweb","False","osweb","0","go","uniform","1","1","0","left_button","0","0","0","0","0","0","0","0","0","0","0","0","0","0","26","26","26","26","17","17","17","17","26","17","26","17","26","17","0","0","0","False","False","undefined","67.9811299162036","250.00216166728126","Mon Jun 01 2026 07:47:34 GMT-0300 (Horário Padrão de Brasília)","The main experiment item","1","False","G:\Meu Drive\OpenSesame\Meus Testes","False","mono","False","20","no","black","no","no","1200","768","1366","True","0","0e898882-95ec-c5fa-7243-984eb4ce1ec7","1032","osweb","0","osweb","","4","osweb","2.2.9","null","False","752","1350","0","0","1","no","0","1","1","None","130","130","1154","2","osweb","8","8","8","8","0","0","1780310923872","1024","2","48000","-16","task","","5","odd","91134","2924","61123","61123","49","49","91134","2925","137057","136924","136673","35522","34368","34101","137057","35522","135638","32731","135638","32731","48","Go No-Go Task (SART)","41","9867","45","yes","1920"
"","100","1","0","91","91","216","216","white","no","osweb","osweb","False","osweb","0","go","uniform","0","1","0","left_button","0","0","0","0","0","0","0","0","0","0","0","0","0","0","27","27","27","27","17","17","17","17","27","17","27","17","27","17","0","0","0","False","False","undefined","67.9811299162036","250.00216166728126","Mon Jun 01 2026 07:47:34 GMT-0300 (Horário Padrão de Brasília)","The main experiment item","1","False","G:\Meu Drive\OpenSesame\Meus Testes","False","mono","False","20","no","black","no","no","1200","768","1366","True","1","0e898882-95ec-c5fa-7243-984eb4ce1ec7","1306","osweb","0","osweb","","4","osweb","2.2.9","null","False","752","1350","0","0","1","no","0","1","1","None","84","84","1154","2","osweb","8","8","8","8","0","0","1780310923872","1024","2","48000","-16","task","","5","odd","91134","2924","61123","61123","49","49","91134","2925","138747","138646","138379","35522","34368","34101","138747","35522","137060","32731","137060","32731","48","Go No-Go Task (SART)","42","9951","46","yes","1920"
"","100","1","0","91","91","216","216","white","no","osweb","osweb","False","osweb","0","go","uniform","1","1","0","left_button","0","0","0","0","0","0","0","0","0","0","0","0","0","0","28","28","28","28","17","17","17","17","28","17","28","17","28","17","0","0","0","False","False","undefined","67.9811299162036","250.00216166728126","Mon Jun 01 2026 07:47:34 GMT-0300 (Horário Padrão de Brasília)","The main experiment item","1","False","G:\Meu Drive\OpenSesame\Meus Testes","False","mono","False","20","no","black","no","no","1200","768","1366","True","0","0e898882-95ec-c5fa-7243-984eb4ce1ec7","896","osweb","0","osweb","","8","osweb","2.2.9","null","False","752","1350","0","0","1","no","0","1","1","None","179","179","1154","2","osweb","8","8","8","8","0","0","1780310923872","1024","2","48000","-16","task","","5","odd","91134","2924","61123","61123","49","49","91134","2925","140085","139901","139650","35522","34368","34101","140085","35522","138749","32731","138749","32731","48","Go No-Go Task (SART)","43","10130","47","yes","1920"
"","100","1","0","92","92","213","213","white","no","osweb","osweb","False","osweb","0","go","uniform","0","1","0","left_button","0","0","0","0","0","0","0","0","0","0","0","0","0","0","29","29","29","29","17","17","17","17","29","17","29","17","29","17","0","0","0","False","False","undefined","69.5436338898567","250.00216166728126","Mon Jun 01 2026 07:47:34 GMT-0300 (Horário Padrão de Brasília)","The main experiment item","1","False","G:\Meu Drive\OpenSesame\Meus Testes","False","mono","False","20","no","black","no","no","1200","768","1366","True","1","0e898882-95ec-c5fa-7243-984eb4ce1ec7","1465","osweb","0","osweb","","2","osweb","2.2.9","null","False","752","1350","0","0","1","no","0","1","1","None","99","99","1154","2","osweb","8","8","8","8","0","0","1780310923872","1024","2","48000","-16","task","","5","odd","91134","2924","61123","61123","49","49","91134","2925","141907","141807","141556","35522","34368","34101","141907","35522","140087","32731","140087","32731","48","Go No-Go Task (SART)","44","10229","48","yes","1920"
"","100","1","0","92","92","211","211","white","no","osweb","osweb","False","osweb","0","go","uniform","1","1","0","left_button","0","0","0","0","0","0","0","0","0","0","0","0","0","0","30","30","30","30","17","17","17","17","30","17","30","17","30","17","0","0","0","False","False","undefined","69.5436338898567","250.00216166728126","Mon Jun 01 2026 07:47:34 GMT-0300 (Horário Padrão de Brasília)","The main experiment item","1","False","G:\Meu Drive\OpenSesame\Meus Testes","False","mono","False","20","no","black","no","no","1200","768","1366","True","0","0e898882-95ec-c5fa-7243-984eb4ce1ec7","877","osweb","0","osweb","","7","osweb","2.2.9","null","False","752","1350","0","0","1","no","0","1","1","None","123","123","1154","2","osweb","8","8","8","8","0","0","1780310923872","1024","2","48000","-16","task","","5","odd","91134","2924","61123","61123","49","49","91134","2925","143179","143045","142794","35522","34368","34101","143179","35522","141910","32731","141910","32731","48","Go No-Go Task (SART)","45","10352","49","yes","1920"
"","100","1","0","92","92","208","208","white","no","osweb","osweb","False","osweb","0","go","uniform","0","1","0","left_button","0","0","0","0","0","0","0","0","0","0","0","0","0","0","31","31","31","31","17","17","17","17","31","17","31","17","31","17","0","0","0","False","False","undefined","69.5436338898567","250.00216166728126","Mon Jun 01 2026 07:47:34 GMT-0300 (Horário Padrão de Brasília)","The main experiment item","1","False","G:\Meu Drive\OpenSesame\Meus Testes","False","mono","False","20","no","black","no","no","1200","768","1366","True","1","0e898882-95ec-c5fa-7243-984eb4ce1ec7","1348","osweb","0","osweb","","7","osweb","2.2.9","null","False","752","1350","0","0","1","no","0","1","1","None","71","71","1154","2","osweb","8","8","8","8","0","0","1780310923872","1024","2","48000","-16","task","","5","odd","91134","2924","61123","61123","49","49","91134","2925","144885","144801","144534","35522","34368","34101","144885","35522","143181","32731","143181","32731","48","Go No-Go Task (SART)","46","10423","50","yes","1920"
"","100","1","0","92","92","206","206","white","no","osweb","osweb","False","osweb","0","go","uniform","0","1","0","left_button","0","0","0","0","0","0","0","0","0","0","0","0","0","0","32","32","32","32","17","17","17","17","32","17","32","17","32","17","0","0","0","False","False","undefined","69.5436338898567","250.00216166728126","Mon Jun 01 2026 07:47:34 GMT-0300 (Horário Padrão de Brasília)","The main experiment item","1","False","G:\Meu Drive\OpenSesame\Meus Testes","False","mono","False","20","no","black","no","no","1200","768","1366","True","1","0e898882-95ec-c5fa-7243-984eb4ce1ec7","1078","osweb","0","osweb","","8","osweb","2.2.9","null","False","752","1350","0","0","1","no","0","1","1","None","83","83","1154","2","osweb","8","8","8","8","0","0","1780310923872","1024","2","48000","-16","task","","5","odd","91134","2924","61123","61123","49","49","91134","2925","146323","146239","145972","35522","34368","34101","146323","35522","144887","32731","144887","32731","48","Go No-Go Task (SART)","47","10506","51","yes","1920"
"","100","1","0","92","92","203","203","white","no","osweb","osweb","False","osweb","0","go","uniform","0","1","0","left_button","0","0","0","0","0","0","0","0","0","0","0","0","0","0","33","33","33","33","17","17","17","17","33","17","33","17","33","17","0","0","0","False","False","undefined","69.5436338898567","250.00216166728126","Mon Jun 01 2026 07:47:34 GMT-0300 (Horário Padrão de Brasília)","The main experiment item","1","False","G:\Meu Drive\OpenSesame\Meus Testes","False","mono","False","20","no","black","no","no","1200","768","1366","True","1","0e898882-95ec-c5fa-7243-984eb4ce1ec7","1339","osweb","0","osweb","","5","osweb","2.2.9","null","False","752","1350","0","0","1","no","0","1","1","None","61","61","1154","2","osweb","8","8","8","8","0","0","1780310923872","1024","2","48000","-16","task","","5","odd","91134","2924","61123","61123","49","49","91134","2925","148012","147945","147678","35522","34368","34101","148012","35522","146325","32731","146325","32731","48","Go No-Go Task (SART)","48","10567","52","yes","1920"
"","100","1","0","92","92","201","201","white","no","osweb","osweb","False","osweb","0","go","uniform","0","1","0","left_button","0","0","0","0","0","0","0","0","0","0","0","0","0","0","34","34","34","34","17","17","17","17","34","17","34","17","34","17","0","0","0","False","False","undefined","71.10613786350979","250.00216166728126","Mon Jun 01 2026 07:47:34 GMT-0300 (Horário Padrão de Brasília)","The main experiment item","1","False","G:\Meu Drive\OpenSesame\Meus Testes","False","mono","False","20","no","black","no","no","1200","768","1366","True","1","0e898882-95ec-c5fa-7243-984eb4ce1ec7","1420","osweb","0","osweb","","9","osweb","2.2.9","null","False","752","1350","0","0","1","no","0","1","1","None","94","94","1154","2","osweb","8","8","8","8","0","0","1780310923872","1024","2","48000","-16","task","","5","odd","91134","2924","61123","61123","49","49","91134","2925","149818","149718","149451","35522","34368","34101","149818","35522","148014","32731","148015","32731","48","Go No-Go Task (SART)","49","10661","53","yes","1920"
"","100","1","0","93","93","200","200","white","no","osweb","osweb","False","osweb","0","go","uniform","1","1","0","left_button","0","0","0","0","0","0","0","0","0","0","0","0","0","0","35","35","35","35","17","17","17","17","35","17","35","17","35","17","0","0","0","False","False","undefined","71.10613786350979","250.00216166728126","Mon Jun 01 2026 07:47:34 GMT-0300 (Horário Padrão de Brasília)","The main experiment item","1","False","G:\Meu Drive\OpenSesame\Meus Testes","False","mono","False","20","no","black","no","no","1200","768","1366","True","0","0e898882-95ec-c5fa-7243-984eb4ce1ec7","1251","osweb","0","osweb","","6","osweb","2.2.9","null","False","752","1350","0","0","1","no","0","1","1","None","150","150","1154","2","osweb","8","8","8","8","0","0","1780310923872","1024","2","48000","-16","task","","5","odd","91134","2924","61123","61123","49","49","91134","2925","151491","151340","151089","35522","34368","34101","151491","35522","149821","32731","149821","32731","48","Go No-Go Task (SART)","50","10811","54","yes","1920"
"","100","1","0","93","93","199","199","white","no","osweb","osweb","False","osweb","0","go","uniform","1","1","0","left_button","0","0","0","0","0","0","0","0","0","0","0","0","0","0","36","36","36","36","17","17","17","17","36","17","36","17","36","17","0","0","0","False","False","undefined","71.10613786350979","250.00216166728126","Mon Jun 01 2026 07:47:34 GMT-0300 (Horário Padrão de Brasília)","The main experiment item","1","False","G:\Meu Drive\OpenSesame\Meus Testes","False","mono","False","20","no","black","no","no","1200","768","1366","True","0","0e898882-95ec-c5fa-7243-984eb4ce1ec7","870","osweb","0","osweb","","7","osweb","2.2.9","null","False","752","1350","0","0","1","no","0","1","1","None","138","138","1154","2","osweb","8","8","8","8","0","0","1780310923872","1024","2","48000","-16","task","","5","odd","91134","2924","61123","61123","49","49","91134","2925","152779","152628","152377","35522","34368","34101","152779","35522","151493","32731","151493","32731","48","Go No-Go Task (SART)","51","10949","55","yes","1920"
"","100","1","0","93","93","198","198","white","no","osweb","osweb","False","osweb","0","go","uniform","1","1","0","left_button","0","0","0","0","0","0","0","0","0","0","0","0","0","0","37","37","37","37","17","17","17","17","37","17","37","17","37","17","0","0","0","False","False","undefined","71.10613786350979","250.00216166728126","Mon Jun 01 2026 07:47:34 GMT-0300 (Horário Padrão de Brasília)","The main experiment item","1","False","G:\Meu Drive\OpenSesame\Meus Testes","False","mono","False","20","no","black","no","no","1200","768","1366","True","0","0e898882-95ec-c5fa-7243-984eb4ce1ec7","1043","osweb","0","osweb","","5","osweb","2.2.9","null","False","752","1350","0","0","1","no","0","1","1","None","115","115","1154","2","osweb","8","8","8","8","0","0","1780310923872","1024","2","48000","-16","task","","5","odd","91134","2924","61123","61123","49","49","91134","2925","154200","154083","153832","35522","34368","34101","154200","35522","152781","32731","152781","32731","48","Go No-Go Task (SART)","52","11064","56","yes","1920"
"","100","1","0","93","93","198","198","white","no","osweb","osweb","False","osweb","0","go","uniform","1","1","0","left_button","0","0","0","0","0","0","0","0","0","0","0","0","0","0","38","38","38","38","17","17","17","17","38","17","38","17","38","17","0","0","0","False","False","undefined","72.66864183716288","250.00216166728126","Mon Jun 01 2026 07:47:34 GMT-0300 (Horário Padrão de Brasília)","The main experiment item","1","False","G:\Meu Drive\OpenSesame\Meus Testes","False","mono","False","20","no","black","no","no","1200","768","1366","True","0","0e898882-95ec-c5fa-7243-984eb4ce1ec7","1027","osweb","0","osweb","","1","osweb","2.2.9","null","False","752","1350","0","0","1","no","0","1","1","None","196","196","1154","2","osweb","8","8","8","8","0","0","1780310923872","1024","2","48000","-16","task","","5","odd","91134","2924","61123","61123","49","49","91134","2925","155689","155488","155237","35522","34368","34101","155688","35522","154202","32731","154203","32731","48","Go No-Go Task (SART)","53","11260","57","yes","1920"
"","100","1","0","93","93","196","196","white","no","osweb","osweb","False","osweb","0","go","uniform","1","1","0","left_button","0","0","0","0","0","0","0","0","0","0","0","0","0","0","39","39","39","39","17","17","17","17","39","17","39","17","39","17","0","0","0","False","False","undefined","72.66864183716288","250.00216166728126","Mon Jun 01 2026 07:47:34 GMT-0300 (Horário Padrão de Brasília)","The main experiment item","1","False","G:\Meu Drive\OpenSesame\Meus Testes","False","mono","False","20","no","black","no","no","1200","768","1366","True","0","0e898882-95ec-c5fa-7243-984eb4ce1ec7","1325","osweb","0","osweb","","8","osweb","2.2.9","null","False","752","1350","0","0","1","no","0","1","1","None","122","122","1154","2","osweb","8","8","8","8","0","0","1780310923872","1024","2","48000","-16","task","","5","odd","91134","2924","61123","61123","49","49","91134","2925","157428","157294","157027","35522","34368","34101","157428","35522","155691","32731","155691","32731","48","Go No-Go Task (SART)","54","11382","58","yes","1920"
"","100","1","0","93","93","197","197","white","no","osweb","osweb","False","osweb","0","go","uniform","1","1","0","left_button","0","0","0","0","0","0","0","0","0","0","0","0","0","0","40","40","40","40","17","17","17","17","40","17","40","17","40","17","0","0","0","False","False","undefined","72.66864183716288","250.00216166728126","Mon Jun 01 2026 07:47:34 GMT-0300 (Horário Padrão de Brasília)","The main experiment item","1","False","G:\Meu Drive\OpenSesame\Meus Testes","False","mono","False","20","no","black","no","no","1200","768","1366","True","0","0e898882-95ec-c5fa-7243-984eb4ce1ec7","1388","osweb","0","osweb","","8","osweb","2.2.9","null","False","752","1350","0","0","1","no","0","1","1","None","266","266","1154","2","osweb","8","8","8","8","0","0","1780310923872","1024","2","48000","-16","task","","5","odd","91134","2924","61123","61123","49","49","91134","2925","159351","159084","158833","35522","34368","34101","159351","35522","157430","32731","157431","32731","48","Go No-Go Task (SART)","55","11648","59","yes","1920"
"","100","1","0","92","92","196","196","white","no","osweb","osweb","False","osweb","0","nogo","uniform","0","0","0","timeout","0","0","0","0","0","0","0","0","0","0","0","0","0","0","41","41","41","41","17","17","17","17","41","17","41","17","41","17","0","0","0","False","False","undefined","72.66864183716288","250.00216166728126","Mon Jun 01 2026 07:47:34 GMT-0300 (Horário Padrão de Brasília)","The main experiment item","1","False","G:\Meu Drive\OpenSesame\Meus Testes","False","mono","False","20","no","black","no","no","1200","768","1366","True","0","0e898882-95ec-c5fa-7243-984eb4ce1ec7","806","osweb","0","osweb","","3","osweb","2.2.9","null","False","752","1350","0","0","1","no","0","1","1","None","112","112","1154","2","osweb","8","8","8","8","0","0","1780310923872","1024","2","48000","-16","task","","5","odd","91134","2924","61123","61123","49","49","91134","2925","160539","160422","160171","35522","34368","34101","160539","35522","159354","32731","159354","32731","48","Go No-Go Task (SART)","55","11760","60","yes","1920"
"","100","1","0","90","90","212","212","white","no","osweb","osweb","False","osweb","0","nogo","uniform","1","0","0","timeout","0","0","0","0","0","0","0","0","0","0","0","0","0","0","42","42","42","42","17","17","17","17","42","17","42","17","42","17","0","0","0","False","False","undefined","72.66864183716288","250.00216166728126","Mon Jun 01 2026 07:47:34 GMT-0300 (Horário Padrão de Brasília)","The main experiment item","1","False","G:\Meu Drive\OpenSesame\Meus Testes","False","mono","False","20","no","black","no","no","1200","768","1366","True","0","0e898882-95ec-c5fa-7243-984eb4ce1ec7","986","osweb","0","osweb","","3","osweb","2.2.9","null","False","752","1350","0","0","1","no","0","None","None","None","1154","1154","1154","2","osweb","8","8","8","8","0","0","1780310923872","1024","2","48000","-16","task","","5","odd","91134","2924","61123","61123","49","49","91134","2925","162947","161793","161542","35522","34368","34101","162947","35522","160541","32731","160541","32731","48","Go No-Go Task (SART)","55","12914","61","yes","1920"
"","100","1","0","90","90","210","210","white","no","osweb","osweb","False","osweb","0","go","uniform","0","1","0","left_button","0","0","0","0","0","0","0","0","0","0","0","0","0","0","43","43","43","43","17","17","17","17","43","17","43","17","43","17","0","0","0","False","False","undefined","74.23114581081596","250.00216166728126","Mon Jun 01 2026 07:47:34 GMT-0300 (Horário Padrão de Brasília)","The main experiment item","1","False","G:\Meu Drive\OpenSesame\Meus Testes","False","mono","False","20","no","black","no","no","1200","768","1366","True","1","0e898882-95ec-c5fa-7243-984eb4ce1ec7","1134","osweb","0","osweb","","5","osweb","2.2.9","null","False","752","1350","0","0","1","no","0","1","1","None","76","76","1154","2","osweb","8","8","8","8","0","0","1780310923872","1024","2","48000","-16","task","","5","odd","91134","2924","61123","61123","49","49","91134","2925","164436","164352","164101","35522","34368","34101","164436","35522","162949","32731","162950","32731","48","Go No-Go Task (SART)","56","12990","62","yes","1920"
"","100","1","0","89","89","225","225","white","no","osweb","osweb","False","osweb","0","nogo","uniform","1","0","0","timeout","0","0","0","0","0","0","0","0","0","0","0","0","0","0","44","44","44","44","17","17","17","17","44","17","44","17","44","17","0","0","0","False","False","undefined","74.23114581081596","250.00216166728126","Mon Jun 01 2026 07:47:34 GMT-0300 (Horário Padrão de Brasília)","The main experiment item","1","False","G:\Meu Drive\OpenSesame\Meus Testes","False","mono","False","20","no","black","no","no","1200","768","1366","True","0","0e898882-95ec-c5fa-7243-984eb4ce1ec7","925","osweb","0","osweb","","3","osweb","2.2.9","null","False","752","1350","0","0","1","no","0","None","None","None","1154","1154","1154","2","osweb","8","8","8","8","0","0","1780310923872","1024","2","48000","-16","task","","5","odd","91134","2924","61123","61123","49","49","91134","2925","166794","165640","165373","35522","34368","34101","166794","35522","164438","32731","164438","32731","48","Go No-Go Task (SART)","56","14144","63","yes","1920"
"","100","1","0","89","89","222","222","white","no","osweb","osweb","False","osweb","0","go","uniform","0","1","0","left_button","0","0","0","0","0","0","0","0","0","0","0","0","0","0","45","45","45","45","17","17","17","17","45","17","45","17","45","17","0","0","0","False","False","undefined","74.23114581081596","250.00216166728126","Mon Jun 01 2026 07:47:34 GMT-0300 (Horário Padrão de Brasília)","The main experiment item","1","False","G:\Meu Drive\OpenSesame\Meus Testes","False","mono","False","20","no","black","no","no","1200","768","1366","True","1","0e898882-95ec-c5fa-7243-984eb4ce1ec7","913","osweb","0","osweb","","6","osweb","2.2.9","null","False","752","1350","0","0","1","no","0","1","1","None","55","55","1154","2","osweb","8","8","8","8","0","0","1780310923872","1024","2","48000","-16","task","","5","odd","91134","2924","61123","61123","49","49","91134","2925","168048","167981","167714","35522","34368","34101","168048","35522","166796","32731","166796","32731","48","Go No-Go Task (SART)","57","14199","64","yes","1920"
"","100","1","0","89","89","220","220","white","no","osweb","osweb","False","osweb","0","go","uniform","0","1","0","left_button","0","0","0","0","0","0","0","0","0","0","0","0","0","0","46","46","46","46","17","17","17","17","46","17","46","17","46","17","0","0","0","False","False","undefined","74.23114581081596","250.00216166728126","Mon Jun 01 2026 07:47:34 GMT-0300 (Horário Padrão de Brasília)","The main experiment item","1","False","G:\Meu Drive\OpenSesame\Meus Testes","False","mono","False","20","no","black","no","no","1200","768","1366","True","1","0e898882-95ec-c5fa-7243-984eb4ce1ec7","1254","osweb","0","osweb","","2","osweb","2.2.9","null","False","752","1350","0","0","1","no","0","1","1","None","84","84","1154","2","osweb","8","8","8","8","0","0","1780310923872","1024","2","48000","-16","task","","5","odd","91134","2924","61123","61123","49","49","91134","2925","169671","169570","169319","35522","34368","34101","169671","35522","168050","32731","168051","32731","48","Go No-Go Task (SART)","58","14283","65","yes","1920"
"","100","1","0","89","89","219","219","white","no","osweb","osweb","False","osweb","0","go","uniform","1","1","0","left_button","0","0","0","0","0","0","0","0","0","0","0","0","0","0","47","47","47","47","17","17","17","17","47","17","47","17","47","17","0","0","0","False","False","undefined","75.79364978446905","250.00216166728126","Mon Jun 01 2026 07:47:34 GMT-0300 (Horário Padrão de Brasília)","The main experiment item","1","False","G:\Meu Drive\OpenSesame\Meus Testes","False","mono","False","20","no","black","no","no","1200","768","1366","True","0","0e898882-95ec-c5fa-7243-984eb4ce1ec7","1072","osweb","0","osweb","","7","osweb","2.2.9","null","False","752","1350","0","0","1","no","0","1","1","None","151","151","1154","2","osweb","8","8","8","8","0","0","1780310923872","1024","2","48000","-16","task","","5","odd","91134","2924","61123","61123","49","49","91134","2925","171192","171025","170758","35522","34368","34101","171192","35522","169673","32731","169673","32731","48","Go No-Go Task (SART)","59","14434","66","yes","1920"
"","100","1","0","90","90","218","218","white","no","osweb","osweb","False","osweb","0","go","uniform","1","1","0","left_button","0","0","0","0","0","0","0","0","0","0","0","0","0","0","48","48","48","48","17","17","17","17","48","17","48","17","48","17","0","0","0","False","False","undefined","75.79364978446905","250.00216166728126","Mon Jun 01 2026 07:47:34 GMT-0300 (Horário Padrão de Brasília)","The main experiment item","1","False","G:\Meu Drive\OpenSesame\Meus Testes","False","mono","False","20","no","black","no","no","1200","768","1366","True","0","0e898882-95ec-c5fa-7243-984eb4ce1ec7","821","osweb","0","osweb","","8","osweb","2.2.9","null","False","752","1350","0","0","1","no","0","1","1","None","142","142","1154","2","osweb","8","8","8","8","0","0","1780310923872","1024","2","48000","-16","task","","5","odd","91134","2924","61123","61123","49","49","91134","2925","172447","172296","172029","35522","34368","34101","172447","35522","171195","32731","171195","32731","48","Go No-Go Task (SART)","60","14576","67","yes","1920"
"","100","1","0","90","90","216","216","white","no","osweb","osweb","False","osweb","0","go","uniform","1","1","0","left_button","0","0","0","0","0","0","0","0","0","0","0","0","0","0","49","49","49","49","17","17","17","17","49","17","49","17","49","17","0","0","0","False","False","undefined","75.79364978446905","250.00216166728126","Mon Jun 01 2026 07:47:34 GMT-0300 (Horário Padrão de Brasília)","The main experiment item","1","False","G:\Meu Drive\OpenSesame\Meus Testes","False","mono","False","20","no","black","no","no","1200","768","1366","True","0","0e898882-95ec-c5fa-7243-984eb4ce1ec7","1060","osweb","0","osweb","","9","osweb","2.2.9","null","False","752","1350","0","0","1","no","0","1","1","None","116","116","1154","2","osweb","8","8","8","8","0","0","1780310923872","1024","2","48000","-16","task","","5","odd","91134","2924","61123","61123","49","49","91134","2925","173885","173768","173517","35522","34368","34101","173885","35522","172449","32731","172449","32731","48","Go No-Go Task (SART)","61","14692","68","yes","1920"
"","100","1","0","90","90","216","216","white","no","osweb","osweb","False","osweb","0","go","uniform","1","1","0","left_button","0","0","0","0","0","0","0","0","0","0","0","0","0","0","50","50","50","50","17","17","17","17","50","17","50","17","50","17","0","0","0","False","False","undefined","75.79364978446905","250.00216166728126","Mon Jun 01 2026 07:47:34 GMT-0300 (Horário Padrão de Brasília)","The main experiment item","1","False","G:\Meu Drive\OpenSesame\Meus Testes","False","mono","False","20","no","black","no","no","1200","768","1366","True","0","0e898882-95ec-c5fa-7243-984eb4ce1ec7","1027","osweb","0","osweb","","9","osweb","2.2.9","null","False","752","1350","0","0","1","no","0","1","1","None","239","239","1154","2","osweb","8","8","8","8","0","0","1780310923872","1024","2","48000","-16","task","","5","odd","91134","2924","61123","61123","49","49","91134","2925","175424","175173","174922","35522","34368","34101","175424","35522","173887","32731","173888","32731","48","Go No-Go Task (SART)","62","14931","69","yes","1920"
"","100","1","0","89","89","230","230","white","no","osweb","osweb","False","osweb","0","nogo","uniform","1","0","0","timeout","0","0","0","0","0","0","0","0","0","0","0","0","0","0","51","51","51","51","17","17","17","17","51","17","51","17","51","17","0","0","0","False","False","undefined","75.79364978446905","250.00216166728126","Mon Jun 01 2026 07:47:34 GMT-0300 (Horário Padrão de Brasília)","The main experiment item","1","False","G:\Meu Drive\OpenSesame\Meus Testes","False","mono","False","20","no","black","no","no","1200","768","1366","True","0","0e898882-95ec-c5fa-7243-984eb4ce1ec7","1447","osweb","0","osweb","","3","osweb","2.2.9","null","False","752","1350","0","0","1","no","0","None","None","None","1154","1154","1154","2","osweb","8","8","8","8","0","0","1780310923872","1024","2","48000","-16","task","","5","odd","91134","2924","61123","61123","49","49","91134","2925","178284","177130","176879","35522","34368","34101","178284","35522","175426","32731","175426","32731","48","Go No-Go Task (SART)","62","16085","70","yes","1920"
"","100","1","0","89","89","228","228","white","no","osweb","osweb","False","osweb","0","go","uniform","1","1","0","left_button","0","0","0","0","0","0","0","0","0","0","0","0","0","0","52","52","52","52","17","17","17","17","52","17","52","17","52","17","0","0","0","False","False","undefined","75.79364978446905","250.00216166728126","Mon Jun 01 2026 07:47:34 GMT-0300 (Horário Padrão de Brasília)","The main experiment item","1","False","G:\Meu Drive\OpenSesame\Meus Testes","False","mono","False","20","no","black","no","no","1200","768","1366","True","0","0e898882-95ec-c5fa-7243-984eb4ce1ec7","803","osweb","0","osweb","","8","osweb","2.2.9","null","False","752","1350","0","0","1","no","0","1","1","None","103","103","1154","2","osweb","8","8","8","8","0","0","1780310923872","1024","2","48000","-16","task","","5","odd","91134","2924","61123","61123","49","49","91134","2925","179488","179371","179104","35522","34368","34101","179488","35522","178286","32731","178286","32731","48","Go No-Go Task (SART)","63","16188","71","yes","1920"
"","100","1","0","88","88","241","241","white","no","osweb","osweb","False","osweb","0","nogo","uniform","1","0","0","timeout","0","0","0","0","0","0","0","0","0","0","0","0","0","0","53","53","53","53","17","17","17","17","53","17","53","17","53","17","0","0","0","False","False","undefined","75.79364978446905","250.00216166728126","Mon Jun 01 2026 07:47:34 GMT-0300 (Horário Padrão de Brasília)","The main experiment item","1","False","G:\Meu Drive\OpenSesame\Meus Testes","False","mono","False","20","no","black","no","no","1200","768","1366","True","0","0e898882-95ec-c5fa-7243-984eb4ce1ec7","1050","osweb","0","osweb","","3","osweb","2.2.9","null","False","752","1350","0","0","1","no","0","None","None","None","1154","1154","1154","2","osweb","8","8","8","8","0","0","1780310923872","1024","2","48000","-16","task","","5","odd","91134","2924","61123","61123","49","49","91134","2925","181963","180809","180542","35522","34368","34101","181963","35522","179490","32731","179490","32731","48","Go No-Go Task (SART)","63","17342","72","yes","1920"
"","100","1","0","88","88","239","239","white","no","osweb","osweb","False","osweb","0","go","uniform","1","1","0","left_button","0","0","0","0","0","0","0","0","0","0","0","0","0","0","54","54","54","54","17","17","17","17","54","17","54","17","54","17","0","0","0","False","False","undefined","77.35615375812215","250.00216166728126","Mon Jun 01 2026 07:47:34 GMT-0300 (Horário Padrão de Brasília)","The main experiment item","1","False","G:\Meu Drive\OpenSesame\Meus Testes","False","mono","False","20","no","black","no","no","1200","768","1366","True","0","0e898882-95ec-c5fa-7243-984eb4ce1ec7","1027","osweb","0","osweb","","9","osweb","2.2.9","null","False","752","1350","0","0","1","no","0","1","1","None","119","119","1154","2","osweb","8","8","8","8","0","0","1780310923872","1024","2","48000","-16","task","","5","odd","91134","2924","61123","61123","49","49","91134","2925","183385","183251","183000","35522","34368","34101","183385","35522","181966","32731","181966","32731","48","Go No-Go Task (SART)","64","17461","73","yes","1920"
"","100","1","0","88","88","240","240","white","no","osweb","osweb","False","osweb","0","go","uniform","1","1","0","left_button","0","0","0","0","0","0","0","0","0","0","0","0","0","0","55","55","55","55","17","17","17","17","55","17","55","17","55","17","0","0","0","False","False","undefined","77.35615375812215","250.00216166728126","Mon Jun 01 2026 07:47:34 GMT-0300 (Horário Padrão de Brasília)","The main experiment item","1","False","G:\Meu Drive\OpenSesame\Meus Testes","False","mono","False","20","no","black","no","no","1200","768","1366","True","0","0e898882-95ec-c5fa-7243-984eb4ce1ec7","1342","osweb","0","osweb","","8","osweb","2.2.9","null","False","752","1350","0","0","1","no","0","1","1","None","305","305","1154","2","osweb","8","8","8","8","0","0","1780310923872","1024","2","48000","-16","task","","5","odd","91134","2924","61123","61123","49","49","91134","2925","185325","185007","184740","35522","34368","34101","185325","35522","183387","32731","183387","32731","48","Go No-Go Task (SART)","65","17766","74","yes","1920"
"","100","1","0","88","88","239","239","white","no","osweb","osweb","False","osweb","0","go","uniform","1","1","0","left_button","0","0","0","0","0","0","0","0","0","0","0","0","0","0","56","56","56","56","17","17","17","17","56","17","56","17","56","17","0","0","0","False","False","undefined","77.35615375812215","250.00216166728126","Mon Jun 01 2026 07:47:34 GMT-0300 (Horário Padrão de Brasília)","The main experiment item","1","False","G:\Meu Drive\OpenSesame\Meus Testes","False","mono","False","20","no","black","no","no","1200","768","1366","True","0","0e898882-95ec-c5fa-7243-984eb4ce1ec7","1170","osweb","0","osweb","","2","osweb","2.2.9","null","False","752","1350","0","0","1","no","0","1","1","None","139","139","1154","2","osweb","8","8","8","8","0","0","1780310923872","1024","2","48000","-16","task","","5","odd","91134","2924","61123","61123","49","49","91134","2925","186914","186763","186512","35522","34368","34101","186914","35522","185327","32731","185327","32731","48","Go No-Go Task (SART)","66","17905","75","yes","1920"
"","100","1","0","88","88","238","238","white","no","osweb","osweb","False","osweb","0","go","uniform","1","1","0","left_button","0","0","0","0","0","0","0","0","0","0","0","0","0","0","57","57","57","57","17","17","17","17","57","17","57","17","57","17","0","0","0","False","False","undefined","77.35615375812215","250.00216166728126","Mon Jun 01 2026 07:47:34 GMT-0300 (Horário Padrão de Brasília)","The main experiment item","1","False","G:\Meu Drive\OpenSesame\Meus Testes","False","mono","False","20","no","black","no","no","1200","768","1366","True","0","0e898882-95ec-c5fa-7243-984eb4ce1ec7","1473","osweb","0","osweb","","1","osweb","2.2.9","null","False","752","1350","0","0","1","no","0","1","1","None","199","199","1154","2","osweb","8","8","8","8","0","0","1780310923872","1024","2","48000","-16","task","","5","odd","91134","2924","61123","61123","49","49","91134","2925","188854","188653","188402","35522","34368","34101","188854","35522","186916","32731","186916","32731","48","Go No-Go Task (SART)","67","18104","76","yes","1920"
"","100","1","0","87","87","250","250","white","no","osweb","osweb","False","osweb","0","nogo","uniform","1","0","0","timeout","0","0","0","0","0","0","0","0","0","0","0","0","0","0","58","58","58","58","17","17","17","17","58","17","58","17","58","17","0","0","0","False","False","undefined","77.35615375812215","250.00216166728126","Mon Jun 01 2026 07:47:34 GMT-0300 (Horário Padrão de Brasília)","The main experiment item","1","False","G:\Meu Drive\OpenSesame\Meus Testes","False","mono","False","20","no","black","no","no","1200","768","1366","True","0","0e898882-95ec-c5fa-7243-984eb4ce1ec7","904","osweb","0","osweb","","3","osweb","2.2.9","null","False","752","1350","0","0","1","no","0","None","None","None","1154","1154","1154","2","osweb","8","8","8","8","0","0","1780310923872","1024","2","48000","-16","task","","5","odd","91134","2924","61123","61123","49","49","91134","2925","191195","190041","189774","35522","34368","34101","191195","35522","188856","32731","188856","32731","48","Go No-Go Task (SART)","67","19258","77","yes","1920"
"","100","1","0","87","87","248","248","white","no","osweb","osweb","False","osweb","0","go","uniform","0","1","0","left_button","0","0","0","0","0","0","0","0","0","0","0","0","0","0","59","59","59","59","17","17","17","17","59","17","59","17","59","17","0","0","0","False","False","undefined","77.35615375812215","250.00216166728126","Mon Jun 01 2026 07:47:34 GMT-0300 (Horário Padrão de Brasília)","The main experiment item","1","False","G:\Meu Drive\OpenSesame\Meus Testes","False","mono","False","20","no","black","no","no","1200","768","1366","True","1","0e898882-95ec-c5fa-7243-984eb4ce1ec7","1034","osweb","0","osweb","","8","osweb","2.2.9","null","False","752","1350","0","0","1","no","0","1","1","None","85","85","1154","2","osweb","8","8","8","8","0","0","1780310923872","1024","2","48000","-16","task","","5","odd","91134","2924","61123","61123","49","49","91134","2925","192600","192500","192249","35522","34368","34101","192600","35522","191197","32731","191198","32731","48","Go No-Go Task (SART)","68","19343","78","yes","1920"
"","100","1","0","87","87","246","246","white","no","osweb","osweb","False","osweb","0","go","uniform","0","1","0","left_button","0","0","0","0","0","0","0","0","0","0","0","0","0","0","60","60","60","60","17","17","17","17","60","17","60","17","60","17","0","0","0","False","False","undefined","78.91865773177524","250.00216166728126","Mon Jun 01 2026 07:47:34 GMT-0300 (Horário Padrão de Brasília)","The main experiment item","1","False","G:\Meu Drive\OpenSesame\Meus Testes","False","mono","False","20","no","black","no","no","1200","768","1366","True","1","0e898882-95ec-c5fa-7243-984eb4ce1ec7","1345","osweb","0","osweb","","6","osweb","2.2.9","null","False","752","1350","0","0","1","no","0","1","1","None","59","59","1154","2","osweb","8","8","8","8","0","0","1780310923872","1024","2","48000","-16","task","","5","odd","91134","2924","61123","61123","49","49","91134","2925","194289","194222","193955","35522","34368","34101","194289","35522","192602","32731","192603","32731","48","Go No-Go Task (SART)","69","19402","79","yes","1920"
"","100","1","0","88","88","244","244","white","no","osweb","osweb","False","osweb","0","go","uniform","1","1","0","left_button","0","0","0","0","0","0","0","0","0","0","0","0","0","0","61","61","61","61","17","17","17","17","61","17","61","17","61","17","0","0","0","False","False","undefined","78.91865773177524","250.00216166728126","Mon Jun 01 2026 07:47:34 GMT-0300 (Horário Padrão de Brasília)","The main experiment item","1","False","G:\Meu Drive\OpenSesame\Meus Testes","False","mono","False","20","no","black","no","no","1200","768","1366","True","0","0e898882-95ec-c5fa-7243-984eb4ce1ec7","875","osweb","0","osweb","","5","osweb","2.2.9","null","False","752","1350","0","0","1","no","0","1","1","None","113","113","1154","2","osweb","8","8","8","8","0","0","1780310923872","1024","2","48000","-16","task","","5","odd","91134","2924","61123","61123","49","49","91134","2925","195560","195443","195176","35522","34368","34101","195560","35522","194291","32731","194292","32731","48","Go No-Go Task (SART)","70","19515","80","yes","1920"
"","100","1","0","88","88","242","242","white","no","osweb","osweb","False","osweb","0","go","uniform","0","1","0","left_button","0","0","0","0","0","0","0","0","0","0","0","0","0","0","62","62","62","62","17","17","17","17","62","17","62","17","62","17","0","0","0","False","False","undefined","78.91865773177524","250.00216166728126","Mon Jun 01 2026 07:47:34 GMT-0300 (Horário Padrão de Brasília)","The main experiment item","1","False","G:\Meu Drive\OpenSesame\Meus Testes","False","mono","False","20","no","black","no","no","1200","768","1366","True","1","0e898882-95ec-c5fa-7243-984eb4ce1ec7","1235","osweb","0","osweb","","6","osweb","2.2.9","null","False","752","1350","0","0","1","no","0","1","1","None","78","78","1154","2","osweb","8","8","8","8","0","0","1780310923872","1024","2","48000","-16","task","","5","odd","91134","2924","61123","61123","49","49","91134","2925","197166","197082","196815","35522","34368","34101","197166","35522","195563","32731","195563","32731","48","Go No-Go Task (SART)","71","19593","81","yes","1920"
"","100","1","0","88","88","240","240","white","no","osweb","osweb","False","osweb","0","go","uniform","0","1","0","left_button","0","0","0","0","0","0","0","0","0","0","0","0","0","0","63","63","63","63","17","17","17","17","63","17","63","17","63","17","0","0","0","False","False","undefined","78.91865773177524","250.00216166728126","Mon Jun 01 2026 07:47:34 GMT-0300 (Horário Padrão de Brasília)","The main experiment item","1","False","G:\Meu Drive\OpenSesame\Meus Testes","False","mono","False","20","no","black","no","no","1200","768","1366","True","1","0e898882-95ec-c5fa-7243-984eb4ce1ec7","1492","osweb","0","osweb","","1","osweb","2.2.9","null","False","752","1350","0","0","1","no","0","1","1","None","70","70","1154","2","osweb","8","8","8","8","0","0","1780310923872","1024","2","48000","-16","task","","5","odd","91134","2924","61123","61123","49","49","91134","2925","199006","198922","198671","35522","34368","34101","199006","35522","197168","32731","197168","32731","48","Go No-Go Task (SART)","72","19663","82","yes","1920"
"","100","1","0","88","88","238","238","white","no","osweb","osweb","False","osweb","0","go","uniform","0","1","0","left_button","0","0","0","0","0","0","0","0","0","0","0","0","0","0","64","64","64","64","17","17","17","17","64","17","64","17","64","17","0","0","0","False","False","undefined","80.48116170542832","250.00216166728126","Mon Jun 01 2026 07:47:34 GMT-0300 (Horário Padrão de Brasília)","The main experiment item","1","False","G:\Meu Drive\OpenSesame\Meus Testes","False","mono","False","20","no","black","no","no","1200","768","1366","True","1","0e898882-95ec-c5fa-7243-984eb4ce1ec7","1444","osweb","0","osweb","","6","osweb","2.2.9","null","False","752","1350","0","0","1","no","0","1","1","None","55","55","1154","2","osweb","8","8","8","8","0","0","1780310923872","1024","2","48000","-16","task","","5","odd","91134","2924","61123","61123","49","49","91134","2925","200795","200728","200461","35522","34368","34101","200795","35522","199008","32731","199008","32731","48","Go No-Go Task (SART)","73","19718","83","yes","1920"
"","100","1","0","88","88","236","236","white","no","osweb","osweb","False","osweb","0","go","uniform","0","1","0","left_button","0","0","0","0","0","0","0","0","0","0","0","0","0","0","65","65","65","65","17","17","17","17","65","17","65","17","65","17","0","0","0","False","False","undefined","80.48116170542832","250.00216166728126","Mon Jun 01 2026 07:47:34 GMT-0300 (Horário Padrão de Brasília)","The main experiment item","1","False","G:\Meu Drive\OpenSesame\Meus Testes","False","mono","False","20","no","black","no","no","1200","768","1366","True","1","0e898882-95ec-c5fa-7243-984eb4ce1ec7","1327","osweb","0","osweb","","7","osweb","2.2.9","null","False","752","1350","0","0","1","no","0","1","1","None","68","68","1154","2","osweb","8","8","8","8","0","0","1780310923872","1024","2","48000","-16","task","","5","odd","91134","2924","61123","61123","49","49","91134","2925","202468","202384","202133","35522","34368","34101","202468","35522","200798","32731","200798","32731","48","Go No-Go Task (SART)","74","19786","84","yes","1920"
"","100","1","0","88","88","233","233","white","no","osweb","osweb","False","osweb","0","go","uniform","0","1","0","left_button","0","0","0","0","0","0","0","0","0","0","0","0","0","0","66","66","66","66","17","17","17","17","66","17","66","17","66","17","0","0","0","False","False","undefined","80.48116170542832","250.00216166728126","Mon Jun 01 2026 07:47:34 GMT-0300 (Horário Padrão de Brasília)","The main experiment item","1","False","G:\Meu Drive\OpenSesame\Meus Testes","False","mono","False","20","no","black","no","no","1200","768","1366","True","1","0e898882-95ec-c5fa-7243-984eb4ce1ec7","1390","osweb","0","osweb","","9","osweb","2.2.9","null","False","752","1350","0","0","1","no","0","1","1","None","25","25","1154","2","osweb","8","8","8","8","0","0","1780310923872","1024","2","48000","-16","task","","5","odd","91134","2924","61123","61123","49","49","91134","2925","204157","204123","203872","35522","34368","34101","204157","35522","202470","32731","202470","32731","48","Go No-Go Task (SART)","75","19811","85","yes","1920"
"","100","1","0","88","88","231","231","white","no","osweb","osweb","False","osweb","0","go","uniform","0","1","0","left_button","0","0","0","0","0","0","0","0","0","0","0","0","0","0","67","67","67","67","17","17","17","17","67","17","67","17","67","17","0","0","0","False","False","undefined","80.48116170542832","250.00216166728126","Mon Jun 01 2026 07:47:34 GMT-0300 (Horário Padrão de Brasília)","The main experiment item","1","False","G:\Meu Drive\OpenSesame\Meus Testes","False","mono","False","20","no","black","no","no","1200","768","1366","True","1","0e898882-95ec-c5fa-7243-984eb4ce1ec7","1247","osweb","0","osweb","","9","osweb","2.2.9","null","False","752","1350","0","0","1","no","0","1","1","None","92","92","1154","2","osweb","8","8","8","8","0","0","1780310923872","1024","2","48000","-16","task","","5","odd","91134","2924","61123","61123","49","49","91134","2925","205762","205662","205411","35522","34368","34101","205762","35522","204159","32731","204159","32731","48","Go No-Go Task (SART)","76","19903","86","yes","1920"
"","100","1","0","89","89","230","230","white","no","osweb","osweb","False","osweb","0","go","uniform","0","1","0","left_button","0","0","0","0","0","0","0","0","0","0","0","0","0","0","68","68","68","68","17","17","17","17","68","17","68","17","68","17","0","0","0","False","False","undefined","80.48116170542832","250.00216166728126","Mon Jun 01 2026 07:47:34 GMT-0300 (Horário Padrão de Brasília)","The main experiment item","1","False","G:\Meu Drive\OpenSesame\Meus Testes","False","mono","False","20","no","black","no","no","1200","768","1366","True","1","0e898882-95ec-c5fa-7243-984eb4ce1ec7","1173","osweb","0","osweb","","9","osweb","2.2.9","null","False","752","1350","0","0","1","no","0","1","1","None","89","89","1154","2","osweb","8","8","8","8","0","0","1780310923872","1024","2","48000","-16","task","","5","odd","91134","2924","61123","61123","49","49","91134","2925","207318","207217","206950","35522","34368","34101","207318","35522","205764","32731","205765","32731","48","Go No-Go Task (SART)","77","19992","87","yes","1920"
"","100","1","0","89","89","228","228","white","no","osweb","osweb","False","osweb","0","go","uniform","1","1","0","left_button","0","0","0","0","0","0","0","0","0","0","0","0","0","0","69","69","69","69","17","17","17","17","69","17","69","17","69","17","0","0","0","False","False","undefined","80.48116170542832","250.00216166728126","Mon Jun 01 2026 07:47:34 GMT-0300 (Horário Padrão de Brasília)","The main experiment item","1","False","G:\Meu Drive\OpenSesame\Meus Testes","False","mono","False","20","no","black","no","no","1200","768","1366","True","0","0e898882-95ec-c5fa-7243-984eb4ce1ec7","926","osweb","0","osweb","","6","osweb","2.2.9","null","False","752","1350","0","0","1","no","0","1","1","None","104","104","1154","2","osweb","8","8","8","8","0","0","1780310923872","1024","2","48000","-16","task","","5","odd","91134","2924","61123","61123","49","49","91134","2925","208622","208505","208254","35522","34368","34101","208622","35522","207320","32731","207320","32731","48","Go No-Go Task (SART)","78","20096","88","yes","1920"
"","100","1","0","89","89","227","227","white","no","osweb","osweb","False","osweb","0","go","uniform","0","1","0","left_button","0","0","0","0","0","0","0","0","0","0","0","0","0","0","70","70","70","70","17","17","17","17","70","17","70","17","70","17","0","0","0","False","False","undefined","82.04366567908141","250.00216166728126","Mon Jun 01 2026 07:47:34 GMT-0300 (Horário Padrão de Brasília)","The main experiment item","1","False","G:\Meu Drive\OpenSesame\Meus Testes","False","mono","False","20","no","black","no","no","1200","768","1366","True","1","0e898882-95ec-c5fa-7243-984eb4ce1ec7","1097","osweb","0","osweb","","2","osweb","2.2.9","null","False","752","1350","0","0","1","no","0","1","1","None","66","66","1154","2","osweb","8","8","8","8","0","0","1780310923872","1024","2","48000","-16","task","","5","odd","91134","2924","61123","61123","49","49","91134","2925","210044","209977","209726","35522","34368","34101","210044","35522","208625","32731","208625","32731","48","Go No-Go Task (SART)","79","20162","89","yes","1920"
"","100","1","0","88","88","237","237","white","no","osweb","osweb","False","osweb","0","nogo","uniform","1","0","0","timeout","0","0","0","0","0","0","0","0","0","0","0","0","0","0","71","71","71","71","17","17","17","17","71","17","71","17","71","17","0","0","0","False","False","undefined","82.04366567908141","250.00216166728126","Mon Jun 01 2026 07:47:34 GMT-0300 (Horário Padrão de Brasília)","The main experiment item","1","False","G:\Meu Drive\OpenSesame\Meus Testes","False","mono","False","20","no","black","no","no","1200","768","1366","True","0","0e898882-95ec-c5fa-7243-984eb4ce1ec7","1077","osweb","0","osweb","","3","osweb","2.2.9","null","False","752","1350","0","0","1","no","0","None","None","None","1154","1154","1154","2","osweb","8","8","8","8","0","0","1780310923872","1024","2","48000","-16","task","","5","odd","91134","2924","61123","61123","49","49","91134","2925","212536","211382","211131","35522","34368","34101","212536","35522","210046","32731","210046","32731","48","Go No-Go Task (SART)","79","21316","90","yes","1920"
"","100","1","0","88","88","235","235","white","no","osweb","osweb","False","osweb","0","go","uniform","0","1","0","left_button","0","0","0","0","0","0","0","0","0","0","0","0","0","0","72","72","72","72","17","17","17","17","72","17","72","17","72","17","0","0","0","False","False","undefined","82.04366567908141","250.00216166728126","Mon Jun 01 2026 07:47:34 GMT-0300 (Horário Padrão de Brasília)","The main experiment item","1","False","G:\Meu Drive\OpenSesame\Meus Testes","False","mono","False","20","no","black","no","no","1200","768","1366","True","1","0e898882-95ec-c5fa-7243-984eb4ce1ec7","1272","osweb","0","osweb","","4","osweb","2.2.9","null","False","752","1350","0","0","1","no","0","1","1","None","45","45","1154","2","osweb","8","8","8","8","0","0","1780310923872","1024","2","48000","-16","task","","5","odd","91134","2924","61123","61123","49","49","91134","2925","214141","214091","213824","35522","34368","34101","214141","35522","212538","32731","212538","32731","48","Go No-Go Task (SART)","80","21361","91","yes","1920"
"","100","1","0","88","88","233","233","white","no","osweb","osweb","False","osweb","0","go","uniform","1","1","0","left_button","0","0","0","0","0","0","0","0","0","0","0","0","0","0","73","73","73","73","17","17","17","17","73","17","73","17","73","17","0","0","0","False","False","undefined","85.1686736263876","237.50212987805654","Mon Jun 01 2026 07:47:34 GMT-0300 (Horário Padrão de Brasília)","The main experiment item","1","False","G:\Meu Drive\OpenSesame\Meus Testes","False","mono","False","20","no","black","no","no","1200","768","1366","True","0","0e898882-95ec-c5fa-7243-984eb4ce1ec7","987","osweb","0","osweb","","4","osweb","2.2.9","null","False","752","1350","0","0","1","no","0","1","1","None","101","101","1154","2","osweb","8","8","8","8","0","0","1780310923872","1024","2","48000","-16","task","","5","odd","91134","2924","61123","61123","49","49","91134","2925","215513","215396","215145","35522","34368","34101","215513","35522","214144","32731","214144","32731","48","Go No-Go Task (SART)","81","21462","92","yes","1920"
"","100","1","0","87","87","232","232","white","no","osweb","osweb","False","osweb","0","nogo","uniform","0","0","0","timeout","0","0","0","0","0","0","0","0","0","0","0","0","0","0","74","74","74","74","17","17","17","17","74","17","74","17","74","17","0","0","0","False","False","undefined","86.7311776000407","221.87709014152563","Mon Jun 01 2026 07:47:34 GMT-0300 (Horário Padrão de Brasília)","The main experiment item","1","False","G:\Meu Drive\OpenSesame\Meus Testes","False","mono","False","20","no","black","no","no","1200","768","1366","True","1","0e898882-95ec-c5fa-7243-984eb4ce1ec7","900","osweb","0","osweb","","3","osweb","2.2.9","null","False","752","1350","0","0","1","no","0","1","1","None","98","98","1154","2","osweb","8","8","8","8","0","0","1780310923872","1024","2","48000","-16","task","","5","odd","91134","2924","61123","61123","49","49","91134","2925","216767","216667","216416","35522","34368","34101","216767","35522","215515","32731","215515","32731","48","Go No-Go Task (SART)","81","21560","93","yes","1920"
"","100","1","0","87","87","230","230","white","no","osweb","osweb","False","osweb","0","go","uniform","0","1","0","left_button","0","0","0","0","0","0","0","0","0","0","0","0","0","0","75","75","75","75","17","17","17","17","75","17","75","17","75","17","0","0","0","False","False","undefined","86.7311776000407","221.87709014152563","Mon Jun 01 2026 07:47:34 GMT-0300 (Horário Padrão de Brasília)","The main experiment item","1","False","G:\Meu Drive\OpenSesame\Meus Testes","False","mono","False","20","no","black","no","no","1200","768","1366","True","1","0e898882-95ec-c5fa-7243-984eb4ce1ec7","1057","osweb","0","osweb","","5","osweb","2.2.9","null","False","752","1350","0","0","1","no","0","1","1","None","61","61","1154","2","osweb","8","8","8","8","0","0","1780310923872","1024","2","48000","-16","task","","5","odd","91134","2924","61123","61123","49","49","91134","2925","218172","218105","217838","35522","34368","34101","218172","35522","216769","32731","216769","32731","48","Go No-Go Task (SART)","82","21621","94","yes","1920"
